acc_x,acc_y,acc_z,gyro_x,gyro_y,gyro_z,lacc_x,lacc_y,lacc_z,activity
-0.19573891,0.18370426,-0.936573,0.61220884,0.13868202,-0.07798484,-0.8186619,1.9047209,10.535833,3
0.12822954,0.1619798,1.1856632,-0.46511212,-0.2927107,-0.15849683,-0.6654396,1.5647589,10.969165,3
-0.37643373,-0.13221109,-1.0940609,0.13854435,-0.025029724,0.18664178,0.44781634,3.7314181,5.6973596,3
-0.13991523,-0.18711019,0.35377312,0.11948536,-0.29735324,0.15658718,-0.49067035,4.6315994,7.8544426,3
1.0681019,0.13546205,0.093735695,-0.071226604,-0.033337474,-0.2569682,-3.562299,0.15224057,7.6246095,3
-0.17561662,-1.2639275,0.24938011,-0.20964853,0.7161936,-0.14591299,-1.6350497,1.5312415,8.881511,3
0.7153722,0.2909217,-0.44432545,0.63175654,0.024694657,0.18945175,-0.8761203,1.1122742,9.939703,3
-0.4349882,1.4132869,0.89653206,-0.5391489,0.16055097,-0.24181877,-0.066914886,0.64781904,13.061607,3
-0.95870626,-0.5942673,0.8441992,-0.29810175,-1.183718,-0.7909861,0.3352937,2.077096,7.763467,3
0.22893675,-0.32777047,-0.22487831,0.09395121,0.24216251,-0.13247399,0.87635994,1.4689949,10.080955,3
0.4433437,0.4880433,0.43782997,0.041661203,0.099953175,0.34864306,0.8141134,2.9174244,6.1522384,3
-0.5505743,-0.027576566,-0.70935345,-0.080633916,0.038500197,-0.34566575,1.6544421,2.8671484,7.8089547,3
0.08511488,-0.070953846,0.61979485,-0.17311884,-0.15416653,-0.34029016,-1.6398377,2.6971674,5.556108,3
0.24388045,0.2423827,-0.3385887,0.036285594,0.1636053,-0.036934737,0.8428426,3.6955066,5.5417433,3
-0.6621037,0.073785424,0.64173985,-0.18435876,-0.004993353,-0.002481965,-0.4140592,1.7610749,9.788875,3
-0.20184758,-0.46182048,-0.37134838,-0.009162743,0.16238359,0.12763223,0.37599337,1.2631024,9.353148,3
-0.17768441,0.031161249,-0.31183338,0.20305164,-0.1524561,0.22585925,-2.0540166,1.4139307,5.295151,3
-0.3155321,-0.117287576,0.27548313,0.015271845,0.040454973,0.21242025,0.10546022,2.6612558,6.3461604,3
-0.1636455,0.15387034,-0.32621956,0.035796903,0.03068113,0.2907331,-0.20337853,1.5647589,8.85757,3
-0.11192844,-0.14910465,0.7233,-0.024678713,-0.019531941,0.058482327,0.74947286,1.6964343,8.414661,3
0.004266709,0.048974037,-0.3481722,-0.03396385,-0.015133719,-0.051106803,-0.34702444,1.952603,8.654072,3
0.47823226,0.38648278,0.1941042,-0.010995336,-0.20328005,-0.30974695,-0.52897596,1.713193,8.721107,3
-0.043583483,0.002322972,-0.43840504,-0.07916784,0.2652532,0.24186394,-2.4083433,0.8273765,11.191816,3
0.39298847,-0.21576595,0.35750103,0.14929555,-0.27230778,0.1389943,-1.3740928,1.1888855,10.306,3
0.26789755,0.34833843,-0.6108103,-0.09004123,0.17704432,-0.07761832,-1.4004279,2.1177957,7.4306874,3
-0.026085585,-0.02526468,1.1106634,0.003543237,-0.10786299,-0.41664824,-0.94794333,2.247077,6.3078547,3
-0.15044817,-0.031815052,-0.10258579,-0.14587426,0.17399,-0.0985099,-0.3829359,1.6700991,8.955728,3
0.5195638,-0.13950413,-0.38749123,-0.021135693,-0.004626838,0.12042402,-0.13634375,1.2607083,8.46015,3
0.20034768,0.2815225,0.002311707,-0.014538352,-0.042378288,-0.032047816,-1.5464679,1.5815176,12.185368,3
0.3222983,-0.13045087,0.16650963,-0.014904878,-0.112994224,-0.015310123,-2.6716943,1.7538927,9.685927,3
0.4224339,-0.061181158,0.016334534,-0.036162965,0.073808186,-0.059292383,0.03124316,1.4833596,8.701954,3
0.1911203,0.32060882,-0.15478802,-0.059497993,0.08492592,-0.18623008,-0.54334056,2.5583096,8.594219,3
0.16550967,-0.07922557,0.086318016,-0.027610851,-0.07744192,-0.20357862,0.9960649,2.587039,16.183512,3
0.14449763,-0.05360979,0.085142136,0.027855651,-0.15502174,-0.14469127,-0.35420677,3.7314181,14.629742,3
-0.13535786,-0.023852974,-0.04059887,-0.026999993,0.06574477,-0.08727,-0.70135105,-0.7263937,9.551859,3
0.012593448,0.10292989,-0.040690422,0.12070709,-0.13168672,-0.019097488,-0.4044828,0.00859464,7.21043,3
-0.20665258,-0.04852873,0.3987322,-0.05571063,-0.020998022,-0.06894405,-1.4578863,-1.1142377,14.27781,3
0.3298873,-0.17864221,-0.93865395,0.027366966,-0.001694691,-0.009934515,-1.8672773,-1.6888213,14.062341,3
0.19417053,-0.6118332,0.5960102,0.050213307,0.041676708,-0.19331609,0.632162,-0.029710934,8.8863,3
0.03749928,-0.13261104,-0.22476578,0.088209085,0.092622824,-0.05709327,0.37838748,-0.106322095,7.938236,3
-0.16658339,-1.4129202,0.23273182,0.10299202,-0.029183615,0.023296526,0.31135273,1.9166914,8.943758,3
-0.6380047,-1.7917745,-0.67464066,0.001832822,-0.0820845,0.1558542,0.6752558,2.9198186,10.435281,3
-0.6001553,-0.9959101,0.3487358,0.110811085,-0.17554681,0.34241223,0.7422905,1.6940402,7.1577597,3
-1.1566811,-1.8998046,0.15314007,-0.27977586,0.1725239,0.15231115,0.4980924,2.086672,7.859231,3
-1.2263196,0.673703,-0.0970211,0.19327782,-0.047509555,0.2375879,-0.13873786,1.2104323,10.385005,3
-1.5156426,-0.06702,0.29496193,-0.12986961,-0.20376876,0.20276858,-0.02621521,1.2798612,9.173591,3
-1.4964519,-0.42564848,0.52834606,0.19572127,-0.2610679,0.42231333,-0.7181097,1.9980909,9.209503,3
-1.2828057,0.27421862,-1.4787588,-0.15735853,0.13147376,0.5367894,0.41908714,2.3188999,11.337857,3
-1.3342255,0.0849002,1.363368,0.16786584,-0.26766518,0.8152215,-0.61516345,-0.03928733,5.7117243,3
-1.1334964,0.26311064,-0.09568119,0.20879379,0.11168179,0.96072954,-1.8433361,0.3389803,6.66697,3
-0.81950575,0.3344968,-0.33599854,-0.10848935,0.24558334,0.84246606,-0.8354206,1.2487378,6.863286,3
-0.21023975,0.13933049,-0.04142189,0.0664623,0.03764499,0.5034362,0.38317567,1.5815176,9.503977,3
0.3785196,0.5214861,-0.2036686,0.002443685,0.22835696,0.4645852,0.69440854,1.5312415,14.407091,3
0.23344216,0.14921463,-0.042651176,-0.037506863,0.117057405,0.19629344,1.1253463,0.21448714,11.014653,3
0.33590358,-0.123619094,0.22664356,0.089430824,0.15395364,0.13080871,-1.0748305,0.26715732,11.318704,3
0.38210887,0.21170834,-0.4963436,-0.04569245,0.29335293,0.025006948,-0.94315505,0.2767337,14.931398,3
0.48725066,0.36466795,1.3242874,0.017348781,-0.15184525,-0.24181876,0.3305055,1.1745207,8.134552,3
-0.020120546,0.8680875,-0.6143732,-0.048258077,0.21919398,-0.28873318,-0.29674837,0.87047017,11.081688,3
0.7635788,-0.015666217,-0.045758247,-0.1422091,-0.096134394,-0.19893605,0.06236644,1.205644,9.618894,3
-0.2028628,0.39250463,0.63075066,0.02113614,-0.22307208,-0.17046976,-0.32308346,0.41559145,6.836951,3
0.20233443,0.050031558,-0.33664703,0.04618158,0.04680795,-0.06185802,-0.5385523,0.15702876,16.173935,3
0.5010697,0.19072184,-0.07034016,0.13035874,-0.1412162,0.012911825,-0.33744803,-0.113504395,10.193477,3
0.94844615,0.12851046,0.52397346,-0.10042594,0.10765009,0.03441427,-1.1490475,0.0971763,15.525135,3
0.83690524,-0.64086974,-0.5412159,-0.10384678,0.27343878,-0.14395823,-0.35660085,-0.8221576,14.002489,3
0.24195018,0.81208825,0.34608078,0.3731164,-0.08513889,-0.109627634,-0.84499705,0.25279272,11.586843,3
1.235551,-0.3825598,1.5495939,-0.08613169,-0.09931089,-0.26833028,-0.8952731,0.09957039,12.101574,3
0.58181685,0.74905396,-2.433721,-0.22638623,0.4176028,-0.38329506,-0.4212415,0.47544387,8.843205,3
0.2742211,-0.6553714,1.7215414,0.051923737,-0.59325606,-0.19209437,-0.9503374,0.53290224,10.361064,3
-0.055903375,0.80556774,-0.093235016,0.08649866,0.027626794,0.011934446,-0.44518253,0.9398991,9.001216,3
-0.18294829,0.23328197,-0.31781673,-0.07819046,-0.10260953,0.06434664,-0.5265819,0.9255345,10.128837,3
0.14330357,-0.17333254,0.45741844,0.06670665,-0.1046865,-0.021418773,-1.0341308,0.7986473,7.9454184,3
0.069455266,0.48362648,-0.8365383,-0.05790974,0.16531572,0.118224904,-0.4499707,1.399566,10.229389,3
0.6441783,-0.5337071,0.3467598,-0.13377915,-0.01122418,-0.09350081,-1.0101898,0.53050816,8.953334,3
0.32358068,0.8538492,-0.14156914,0.07244879,0.11070441,-0.026916556,-0.49545857,0.8369528,11.409679,3
0.7140771,-0.01689431,0.18764305,0.001221955,-0.05716121,-0.16521633,-0.59840477,1.5719411,8.065124,3
0.9240147,-0.08366103,0.7388325,-0.05509977,0.04326495,-0.2746833,-0.22013721,1.7993805,10.885372,3
0.65118754,0.6958027,-0.11944771,0.07611397,0.14589022,-0.34481058,-0.62952805,0.84174097,6.652605,3
0.508048,-0.09583421,0.1063385,-0.052289784,-0.09857784,-0.3011948,-0.58882844,0.81301177,8.1465225,3
0.042405248,0.33099633,0.0328331,-0.017959202,-0.023807997,-0.2085877,-0.41645333,1.0524218,8.771382,3
0.24685991,-0.18251967,-0.14076138,0.012461862,-0.2572805,-0.12477709,0.22277106,1.4402658,11.134357,3
-0.0634377,0.10230337,0.13076591,0.07696918,0.06892127,-6.49E-04,0.17010088,0.77231216,11.495867,3
0.022549272,-0.084619895,0.1036911,-0.010750993,-0.12521154,0.030626902,0.72074366,0.32700977,12.288314,3
0.1661588,-0.003911644,-0.42627335,-0.009284915,0.08016118,0.036735542,0.19404188,0.8800466,10.387399,3
0.060358524,-0.5815691,1.0140905,-0.007696667,0.11840131,-0.020930082,-0.34463036,0.6669718,10.286847,3
0.20448714,-0.050388142,-0.29228973,0.09773859,0.00282571,-0.040966444,0.37599337,1.3109844,9.386665,3
-0.08258152,-0.49131066,0.28193188,-0.13536741,-0.04848694,-0.11170458,0.17728318,0.9255345,9.8223915,3
0.06729686,-0.2292532,-0.8051233,0.10286984,-0.05276298,-0.14603518,1.5921955,2.247077,14.222746,3
-0.031062484,-0.19713244,0.82397556,-0.03530776,-0.12777717,-0.08397132,1.7621765,1.9214796,12.187762,3
-0.014973402,-0.19736908,0.17015743,-0.015271392,0.008812176,0.012423134,0.28741175,0.6214839,10.442464,3
0.016551733,-0.4017156,-0.15822697,0.040317304,0.076618165,-0.017509237,-0.33026576,0.001412347,8.249469,3
-0.081745625,-0.27675077,0.427763,-0.008551883,-0.07719758,-0.061002806,0.6034328,0.70288324,11.3282795,3
-0.14508355,-0.52005804,-0.9236107,0.022357874,0.06818823,-0.037789945,0.28980583,0.7818886,9.906186,3
0.21493936,-1.4774816,0.46247673,0.054489363,-0.062659,0.04687591,-0.82823837,0.9901751,7.471387,3
-0.26442116,-0.39880145,0.45256042,0.1450195,-0.09430181,0.16110758,-1.0101898,1.4737831,8.809688,3
0.27971768,-1.4674748,0.3698597,-0.0799009,0.07869506,-0.015676644,0.7877784,0.65978944,8.304533,3
0.085651636,-1.4074254,-0.35762882,-0.07880131,0.3133893,0.071677014,-0.09564409,-0.07280472,7.389988,3
-0.09971702,1.4118705,1.372571,0.22614233,0.045830585,0.038201638,0.103066124,0.43235013,8.311716,3
-0.31244087,-1.4909832,-0.5443001,-0.4156321,-0.27279648,-0.13846044,0.31853503,1.5623648,8.510426,3
0.4385922,0.1266619,1.2742434,0.16542238,-0.13290845,0.00607013,-0.16746703,1.7012225,10.320365,3
0.017589808,0.017698415,-1.545248,0.2431244,-0.21623042,-0.3992997,0.64173836,1.301408,10.353882,3
0.79574263,-1.2723013,0.19069386,-0.42210728,-0.23516718,-0.32843938,-0.27520147,0.88483477,8.704348,3
0.54430187,0.15448841,-0.9988413,0.3429397,0.1843747,-0.4259334,-0.39490643,0.9231404,9.743387,3
1.4204892,-1.5229763,1.8250723,-0.23017366,0.011011288,-0.4813999,-0.5098231,0.17139333,9.331602,3
0.10210633,-0.32093507,-0.6872158,-0.053878043,0.15725233,-0.29716313,-0.7324743,0.58796656,8.6421,3
0.6405151,-1.731162,-0.30205727,-0.092240356,-0.03639182,-0.26478732,0.96494174,1.7036165,11.7328825,3
-0.21131945,0.45550787,1.93855,0.1847257,0.0700208,-0.19502653,0.41908714,0.9207463,8.237498,3
-2.0573342,-1.6237848,-0.33335876,0.2530204,-0.1864202,-0.39893317,0.040819556,0.8824407,11.878922,3
-1.6409261,-1.3332549,0.9939165,-0.1974313,0.04045493,0.21413065,-0.29196015,0.5520551,10.11926,3
-2.1684833,0.92434883,0.01827526,0.8972384,-0.5597804,-0.03901168,0.8260839,0.6214839,14.179652,3
-0.57413137,-1.7552251,-0.7507105,-0.58471954,0.45669806,0.16477278,1.0990112,-0.15420407,15.055892,3
-2.29735,-0.06938887,2.4973335,-0.007207982,-0.11824768,0.34644398,0.8979069,0.25518683,12.020175,3
-1.3227655,-1.2391471,-2.4396472,0.036285587,-0.6996687,0.19751512,0.115036614,0.259975,11.605996,3
0.12015557,-0.58975697,-0.3089695,-0.15625896,0.22041568,0.7884656,0.148554,0.60472524,10.183901,3
1.4334841,1.0659516,2.977048,0.21062641,0.15554185,0.70660985,-0.34463036,0.5664196,10.526257,3
-0.3735373,-0.3441313,-0.6617155,0.27464503,0.43873876,-0.6005185,-0.20337853,0.5640255,7.291829,3
-0.94431925,1.0425289,-1.2410622,-0.049601983,-0.19790441,-0.07041011,-0.4044828,0.8393469,8.321292,3
-0.40398192,-0.3010857,-1.5900617,-0.35918823,-0.37102348,0.09635596,0.28741175,0.12111728,7.06439,3
1.4780607,0.18068084,1.2328157,-0.27232328,-0.36906874,0.10112069,0.62019145,0.865682,8.843205,3
0.37234664,-0.280153,0.6708269,0.5428146,0.29310858,-0.45708752,-0.08846179,-0.041681435,7.8400784,3
1.3271743,1.0272616,2.193757,-0.21954457,0.43263015,-0.09557775,-0.07170308,0.2719455,7.3612585,3
-0.3000039,-1.0579038,-1.5624561,0.5305973,0.80599064,-0.3063261,0.3305055,0.16421106,9.427366,3
-0.79607344,-0.6089257,-0.51960754,-0.6651093,-0.14390397,-0.02960436,0.7829902,0.6071193,7.3229527,3
-0.9858004,-0.42416352,1.361187,0.404637,-0.20657872,0.039912052,0.703985,0.50417304,10.380217,3
-1.4644529,-0.6134318,-1.313508,-0.2471557,0.50849956,0.3091812,0.07433693,-0.041681435,8.484091,3
-0.023014069,-0.4910772,0.2804346,-0.04214947,-1.1123688,0.52273947,0.8667836,0.14027008,10.916494,3
-0.7085844,0.36521742,0.52454185,0.36199865,-0.06314768,0.15365504,0.69201446,0.24800453,6.7938566,3
0.8103361,-1.250674,-1.063673,0.08600999,-0.12912107,0.44528186,-0.5122173,0.24561042,9.278932,3
0.99823153,-0.030144215,-0.30985928,-0.091262974,0.20037937,-0.1842753,0.60582685,1.3828074,11.553326,3
1.1515373,0.7573446,0.41539097,-0.16542195,0.21332964,-0.23094536,0.40472257,0.4275619,7.923872,3
1.8701982,-1.117218,0.33843327,-0.24019179,0.30557024,-0.24914914,-0.49067035,0.10914679,5.9487405,3
0.6151023,0.41302815,-1.9032898,0.018081823,0.46744937,-0.55910194,1.2737803,0.88962305,10.136019,3
1.0782189,0.31419116,2.2773905,0.027244793,0.025794217,-0.42886552,1.1085876,1.0739686,9.080221,3
1.22258,-0.53650755,-0.47381878,0.011973165,0.036789786,-0.37596464,0.5555508,0.38686225,9.568618,3
0.42278668,-0.43790567,0.08798885,0.061453223,0.3314709,-0.6269079,0.4549986,0.6095134,7.559969,3
0.35056838,-0.09601742,0.3533907,0.28661793,0.16629313,-0.029482191,0.19883007,-0.34094378,8.225528,3
0.70830345,0.14969897,-1.5618858,-0.02003614,0.13587202,-0.24817175,0.366417,0.1019645,9.015581,3
0.43844077,-1.1736554,2.7862167,-0.13353482,-0.34023598,-0.51121014,0.7111672,0.8776525,9.86788,3
1.4019396,-0.6517915,-0.8795576,0.10128161,0.44411433,-0.18977308,0.3496583,0.78667676,8.4625435,3
0.11292881,-0.60719746,0.78453255,0.03811819,0.076862514,-0.5951429,0.58427995,0.35573897,13.178919,3
1.4449141,-0.70756364,-0.30427074,0.06548493,-0.23883238,-0.60467243,1.4988257,1.2032499,12.142274,3
0.3765027,-0.025544375,-0.10349846,-0.045081586,0.11766828,-0.94907796,-0.13394967,0.17857566,8.879117,3
0.40178442,-0.26012036,0.21849728,0.017348787,-0.21451996,-0.88151634,0.53879213,0.2934924,13.98573,3
0.37622827,0.03007406,-0.011148453,0.070371844,-0.26119006,-0.5682649,1.2809627,1.1769149,10.631597,3
0.12124303,-0.17389381,0.20236301,0.052778944,0.026405087,-0.47883427,0.21319467,0.30546287,10.037861,3
0.13072589,0.593722,-0.09841919,0.12938136,-0.03199358,-0.54847294,0.37599337,0.15224057,7.904719,3
0.2228721,0.08352178,-0.7424593,-0.0802674,-0.098089136,-0.47504696,0.27065304,0.42516783,9.398637,3
-0.090486065,0.29004276,0.16777134,0.066828825,0.063667834,-0.41139483,-0.20098442,-0.2906677,7.5144806,3
-0.1370197,0.5150498,0.09822941,0.15027295,-0.11018427,-0.2666199,-0.62713397,-0.120686695,5.029406,3
-0.7542827,-0.3227548,0.49179077,-0.056810193,0.041188005,-0.17902187,1.580225,0.62866616,12.64264,3
-0.565038,-0.2688099,-0.3131466,0.2376266,-0.2852581,0.085360385,0.68962026,0.41080323,9.161621,3
-0.48976374,0.17163491,-0.0884161,-0.112521045,-0.028939286,-0.052328527,0.6010387,0.33179796,11.57966,3
-0.4981215,-0.2550817,0.34418106,-0.004398003,-0.096256554,-0.19038394,1.189987,0.33179796,14.308933,3
-0.8612832,-0.002499104,0.15940666,-0.037140343,-0.08868183,-0.08103917,-0.36857137,0.31503928,5.4723144,3
-0.6090441,-0.21324241,-0.072891235,0.010873619,-0.20572351,0.07912956,0.10785432,0.477838,7.87599,3
-0.277636,-0.2397657,-0.24387169,0.005375831,-0.07744192,0.050296746,0.45021042,0.13787597,8.924604,3
-0.48339844,0.09673786,0.75877094,0.06719535,-0.037247024,0.07021094,0.15094809,0.307857,6.3078547,3
-0.31851184,-0.021324277,-0.21436977,1.22E-04,-0.077930614,0.117736205,0.61540323,0.3174334,9.630864,3
-0.17603028,0.027067423,0.6070566,0.020036591,-0.047631722,0.06569054,0.97691214,0.70288324,12.228461,3
-0.4608089,-0.082381666,0.034222603,-0.048135906,0.16140619,0.2050899,0.1413717,0.5975429,8.057941,3
0.011816502,-0.09332883,0.273777,0.08930865,-0.066202,0.045409843,-0.34463036,0.5496609,7.102696,3
-0.07808441,0.14246082,-0.079642296,0.013561423,-0.069745034,-0.14188129,0.6034328,1.327743,7.9861183,3
-0.047255397,-0.032419443,0.611804,-0.03775121,-0.03773571,-0.003459347,0.27065304,1.2224028,6.985385,3
0.104142666,0.022560477,-0.51370335,0.042638585,-0.061437275,-0.026794381,0.11024842,-0.24996804,11.127175,3
-8.88E-04,-0.035598278,0.6406622,-0.09822682,0.041310184,0.014500072,0.7590492,-0.19250965,11.52699,3
-0.13693607,-0.012741208,0.25531673,0.044959873,0.015653867,0.05005241,0.74947286,-1.0328383,10.045043,3
-0.20745528,-0.029648483,0.04998398,-0.014294011,-0.07597584,-0.003337175,0.3568406,-0.79103434,8.582249,3
-0.07017779,-0.048166215,0.5313988,-0.002565403,-0.08477231,-0.006758018,-0.10761458,-1.1645137,10.45204,3
-0.034955144,-0.1652891,-0.18965054,-0.016859641,0.09482194,0.06862269,0.08151923,-1.2770363,8.340445,3
0.065883875,-0.28645724,0.02848053,-0.001954541,0.056581803,0.12763223,-0.41884735,-1.9593545,6.683728,3
0.60576826,-0.7034863,0.2141161,-0.032131255,0.08981284,0.1024646,-0.33505395,-1.1645137,11.613178,3
0.20827812,-0.690431,0.18116093,-0.07403657,0.21039756,0.012423134,-1.3190285,-1.607422,5.2831807,3
0.14545065,-0.5291954,0.3010702,0.056566298,-0.01000246,0.08157301,-1.1203184,-1.4111059,9.235838,3
0.112197995,-0.20268598,0.15403938,0.07049402,-0.10896255,-0.058681518,-0.36857137,0.65978944,7.849654,3
0.23754668,-0.25647762,-0.23836708,0.05143504,-0.050686043,-0.036446042,-0.62713397,0.8058295,8.223134,3
0.16056871,-0.23118554,0.3132372,0.003543241,-9.62E-04,0.08047347,-1.1418653,-1.2937951,13.679285,3
0.06550515,-0.34696642,0.11549282,-0.05436673,0.09115674,0.014011381,-0.94076085,-2.1245475,10.23657,3
-0.012620211,-0.2327454,0.0823822,0.05754368,0.067699544,0.027816927,0.38317567,-1.6050278,9.9277315,3
-0.04141617,-0.22880878,-0.070780754,0.00757495,0.02799333,-0.012988839,0.9122715,-0.38882574,10.875795,3
-0.007687926,-0.29359022,-0.23622417,0.05155721,-0.09027008,0.029771695,-0.32308346,1.0212984,12.597153,3
-0.3029247,-0.100489885,0.24657536,0.02113615,-0.04824259,-0.002359791,-0.579252,1.0524218,10.533439,3
0.13521504,-0.3584218,-0.14125538,0.057543684,-0.13388583,0.06385794,0.40232846,1.3468959,10.574139,3
-0.31645358,0.11057186,0.32547092,0.03152085,-0.04005702,0.041622475,0.23713565,1.4019601,9.410606,3
-0.0487597,-0.08889966,-0.04990673,0.0746479,-0.114582494,0.20924374,0.21798286,0.74597704,9.970826,3
-0.041060686,0.031618156,-0.25581646,0.046059426,0.010889119,0.21669629,-0.12197915,-0.11829259,9.7577505,3
-0.034299493,0.06590005,0.2559433,0.016249225,0.09616584,0.26446593,0.7279259,0.98778105,17.58406,3
0.16083753,-0.098859325,-0.13639355,-0.010140133,0.10569533,0.26507682,2.0710154,0.18815207,20.155323,3
0.030008078,-0.042303115,-0.007777214,0.058521062,0.05694831,0.17796746,-2.0707755,-0.5228953,9.288507,3
0.31640065,0.003431786,0.28649998,0.051557213,0.007712623,0.0708218,-0.6247399,-0.19969195,11.230122,3
0.21442819,-0.13449019,-0.16919804,-0.005375378,0.05609312,-0.001626754,0.9817004,0.722036,8.788141,3
0.31482047,-0.28823942,0.099033356,0.002321516,0.12194433,0.14864597,-0.5816461,-0.14941588,5.9200106,3
0.29841572,-0.43557137,-0.34607983,0.031154329,0.17508957,0.092690766,1.3192682,1.34929,12.221279,3
0.6065749,-0.07723352,-0.32382774,0.016127056,0.0986093,0.04540983,1.0894349,1.0619981,11.017047,3
-0.035372972,0.6198944,0.20810509,0.042027723,0.073441684,-0.20272341,-0.17225522,-0.20687425,5.620749,3
0.17724627,0.84062946,-0.17894077,0.01612706,-0.10431996,-0.19722563,0.07194284,-0.45825464,7.457022,3
0.4261074,0.71027684,-0.32392216,0.058154553,-0.24347495,-0.39954403,1.0295823,-0.4965602,9.614106,3
0.33201885,0.8276462,0.088196754,-0.049235467,-0.025029732,-0.314756,1.1373168,-0.40079626,9.32442,3
0.32445568,0.4996305,-0.18544292,-0.04043901,0.02493901,-0.30168355,0.26107663,2.6636503,17.406897,3
-0.002288818,0.38740256,0.034272194,-0.06719489,0.013332579,-0.3202538,0.9122715,2.3595994,20.492891,3
0.18504024,-0.2094185,-0.19089794,-0.042027265,0.04265408,-0.31243476,0.05039595,0.18336385,9.891821,3
-0.11328089,0.42715853,-0.07774639,-0.038728595,-0.106885605,-0.48836377,0.08151923,-0.57077724,11.220546,3
-0.28958142,0.11370945,0.09028053,-0.062430143,-0.1921623,-0.3396793,0.04800185,-0.3074264,7.4833574,3
-0.32294893,0.1109789,-0.015125275,-0.02186873,-0.13730668,-0.13968217,0.08151923,0.1019645,7.5719395,3
-0.9148296,0.7186678,-0.28734303,-0.015027045,-0.05899381,0.004237546,-0.16028476,0.0875999,10.588504,3
-0.43487155,0.10665929,0.15945148,0.022113526,-0.23809934,0.068133995,-0.62952805,-0.5659891,7.179307,3
-0.41945207,0.35875303,-0.086289406,0.05497805,-0.048120406,0.16489497,0.40472257,0.85610557,10.677085,3
-0.40896666,0.09959483,0.13811874,0.06279712,-0.11323859,0.14388122,0.3017763,0.7387948,12.053692,3
-0.1350913,0.03862512,0.051397324,0.027366966,-0.09002573,0.40801913,-0.44757655,0.0971763,7.0715723,3
0.1986779,-0.16027331,-0.13335419,0.07586963,0.105328806,0.32836235,-0.5050349,0.058870718,9.180774,3
0.003833413,0.08409035,-0.12383938,0.070127495,0.2755157,0.30954772,0.43584585,0.013382837,8.448179,3
0.13665569,0.01677537,0.08536434,0.09443992,0.06110219,0.17711228,0.37838748,0.38446817,9.824786,3
-0.083783984,0.2469827,-0.031199455,0.025900895,-0.013545469,0.074486986,-0.22731951,0.7340065,7.744314,3
0.212852,-0.8511589,0.17132187,-0.014049657,-0.020998025,-0.008101918,-0.22731951,0.5855725,8.874329,3
0.38502634,-0.41908425,-0.03862858,0.009285372,0.038255855,0.077296965,1.2211102,0.006200537,8.038789,3
0.53356385,-0.52165914,0.10797119,-0.025778268,0.044242334,-8.94E-04,0.19883007,-0.4654369,6.9446855,3
0.07511473,-0.27256197,0.3856516,0.019792246,-0.006703788,0.17234752,0.76144326,0.7531594,9.448913,3
0.2915092,-1.0685271,-0.5306454,0.020769626,0.18657382,0.26605415,0.50288063,0.865682,8.680407,3
0.31625065,-0.58506376,0.62823963,0.048991583,0.29555207,0.20545639,0.05518415,-0.16138637,10.061802,3
0.7522064,-0.69348544,-0.44049263,0.029566081,-0.014278511,-0.094356015,0.52442753,-0.0991398,12.910779,3
0.6829093,-0.79216594,0.069161415,-0.035674267,-0.10981776,-0.30510432,-0.4715176,-0.42952543,7.3756227,3
0.44014183,-0.5925654,0.06519508,-0.025778262,0.15920708,-0.113659345,-0.5385523,-0.4941661,7.5288453,3
0.4662345,-0.12428558,0.044021606,0.028588697,-0.08000755,-0.28555667,1.1157699,1.205644,13.518881,3
0.69737333,0.15551317,0.086764336,-0.074036576,-0.16149691,-0.4497572,1.0750701,1.569547,10.20066,3
0,0,0,-0.00977361,0.10862748,-0.1978365,-0.9838548,-0.087169304,9.331602,3
0,0,0,0.004276282,-0.20425744,-0.10571809,-0.30632475,0.5496609,11.079294,3
-0.11684948,0.003502965,0.02263832,0.10067074,0.15859622,0.14412555,0.42387533,-0.041681435,7.7012205,3
0.28953534,0.31747735,0.18698597,-0.008674053,0.119256526,-0.026550036,0.27065304,0.5975429,7.9789357,3
-0.07482749,0.08483493,-0.49638176,0.012950555,-0.21036609,-0.12062321,0.7877784,0.5568433,10.629203,3
0.13359272,-0.06916118,0.93719006,-0.0174705,-0.2130539,-0.20321211,-0.5672815,-0.58274776,7.655732,3
0,0,0,-0.056443676,0.11180397,-0.08555956,1.4270027,1.5623648,13.882784,3
-0.109591186,0.2501337,0.21703148,-0.0350634,-0.19008537,-0.0434099,2.7988214,1.7179811,15.237843,3
-0.14803708,-0.13263613,0.06317425,0.018448338,0.055360075,-0.03595735,0.115036614,0.8273765,13.293835,3
0.08921909,0.28161752,0.29483414,-0.030787362,-0.059971187,0.20545636,0.40711668,0.7531594,11.218152,3
0.15725672,-0.07038444,-0.1791048,0.045448553,-0.06278118,0.044432446,-0.16986114,0.99735737,10.770454,3
-0.08743513,0.5909164,0.39880848,-0.018692233,0.094455406,0.12482223,-0.4786999,0.38686225,9.159226,3
0.1320312,-0.046568632,-0.4549141,0.071104884,-0.17542462,0.064835325,-0.066914886,-1.0184737,8.75223,3
0,0,0,-0.001465848,0.07869512,0.106251955,0.852419,0.025353342,12.513359,3
0.14258838,-0.007456899,0.46210194,-0.03176474,-0.009880277,0.106618494,0.3281114,-0.77427566,6.4586835,3
0.046959758,-0.017548203,-0.0122118,0.032742567,-0.12252374,0.07387613,0.22755925,-0.24757393,11.081688,3
0.011930704,-0.35454625,-0.14587879,-0.007207976,0.017486457,0.001427569,0.79256654,0.34616256,8.888694,3
-0.06800878,0.09775257,0.013145447,0.05412285,0.19598114,0.1873748,0.08870153,-0.80300486,2.4581442,3
0.02160132,-0.11705899,0.04223156,0.007086256,-0.19888183,-0.0537946,0.87635994,1.155368,14.591436,3
0.20980656,-0.08720291,0.005102158,0.005375838,0.09152326,0.12030186,1.6065601,0.48023215,9.882245,3
0.52705437,-0.21530676,0.048957825,-0.014782701,0.005757853,0.11785838,-0.18901393,-0.60668874,8.290169,3
-0.40523958,-0.032422185,0.03545761,0.078679614,0.10068624,0.07412048,1.1971692,0.49699083,11.119994,3
-0.05598259,0.07034838,-0.20075607,0.05571109,0.06171307,0.24357435,0.17967728,1.2152205,9.891821,3
0.101115465,0.074872494,0.441267,0.016615748,0.066477805,0.114315376,0.26347074,1.4761771,10.806367,3
-1.0613482,0.013602614,-0.37389278,0.003421068,0.007101759,-0.15348771,0.11024842,-0.47501332,6.0085926,3
0.19882369,0.47002256,0.22522736,0.17311928,0.6889489,0.23819876,0.6106151,0.21209303,10.17193,3
-0.09996867,0.74699736,0.45730877,0.024068305,-0.62770885,-0.1264875,1.2665981,0.9518695,9.381878,3
-0.40401328,0.62390697,-0.48773098,0.059009757,-0.009635932,0.026839541,1.0343705,0.7986473,9.374696,3
-0.7862391,-0.40107828,-0.116537094,0.10702372,-0.041523077,0.006803183,1.482067,0.37249765,12.388865,3
-0.041692376,0.45151687,0.122522354,-0.2640155,-0.4592324,0.62548697,0.7255318,0.42277375,9.221473,3
-0.24420577,0.015740633,-0.06428242,0.1585807,-0.176402,0.07350962,1.1229522,-0.2691208,9.659593,3
0.14893293,-0.37601745,-0.15770721,-0.11105499,0.065744765,-0.16521633,0.12461301,-1.1286023,6.0277452,3
0.102336764,-1.2129714,0.49627304,-0.34403878,0.12402128,-0.5302691,1.5371312,1.9861203,17.691795,3
0.18915558,0.3885851,-0.3506775,0.06951662,0.19182725,0.18969609,3.0525959,1.1960677,16.501928,3
0.7860663,-1.3238039,1.1180592,-0.04361552,0.21051972,0.119935334,-0.32068935,-1.7031859,9.132892,3
0.26280504,-0.073581815,-1.4088879,0.026267385,0.059636123,0.17894489,-0.06452079,-0.9801681,14.33048,3
0.18071008,-0.16576076,0.5532017,0.049480274,-0.027106663,-0.083971314,1.728659,2.101037,11.2229395,3
0.57576466,0.23432887,-0.33153534,0.27146852,-0.10236519,0.03343688,0.9433948,1.6796757,10.217418,3
0.55983484,-0.102336526,1.0502577,-0.04605897,0.05890309,0.08975862,-0.5098231,1.1170624,9.97322,3
0,0,0,0.115575835,0.25999972,0.12506658,-0.062126696,1.1386093,15.901009,3
0.03022182,0.026493669,-0.7999344,-0.14856209,0.010522595,0.001549739,0.80453706,-1.1501491,7.0045376,3
0.07382393,-0.054607034,-0.034939766,0.078190915,-0.10041043,-0.017997932,0.033637255,-1.2315484,9.322024,3
-0.13472581,0.56946456,0.039304733,-0.13610044,-0.006215093,-0.19588175,1.4892492,0.28152192,10.387399,3
-0.7851443,-0.21868294,0.2202282,0.09822727,-0.020264983,-0.095455565,1.2426571,0.2695514,10.17193,3
0.6183903,0.12927294,0.0665617,-0.3128847,-0.03895745,-0.15605336,-2.3628554,3.14247,11.124782,3
0.11316681,0.49969006,0.5524769,0.11655322,-0.08232885,-0.24572828,3.924048,4.823127,28.012754,3
-1.6358137,-0.3180527,-0.31058407,-0.07220397,0.004780477,-0.18549703,-0.80190325,-0.35530838,-0.5679964,3
0,0,0,-0.021502212,-0.14109401,-0.17279103,-0.16028476,0.9518695,5.3573976,3
0.39042425,-0.06400037,-0.73706436,-0.08173347,-0.33522686,-0.17046979,1.6233188,-0.13265719,11.531778,3
-0.09568,-0.51658154,-0.24351597,0.17287493,-0.72410333,0.32665193,0.45978683,-1.1046612,6.183362,3
0.051419973,-0.073773384,-0.29807186,0.08429956,0.012721712,0.101609394,1.0008532,-1.1525432,7.5456038,3
-0.3276605,-0.011369944,-0.79593945,0.06279713,-0.07353239,-0.11182675,0.3448701,-0.61865926,4.706203,3
-0.23051095,0.15272582,0.9556093,-0.37213856,-0.84236676,0.020242205,0.06715464,0.8752583,6.7555513,3
0.120191246,-0.09420538,-0.48300743,0.06389668,-0.22038427,0.07082181,0.25868255,1.2966198,7.277465,3
0.59738296,-0.8484702,-0.46187305,0.0967612,-0.14292662,0.06825618,0.7015908,0.37249765,11.127175,3
0.27336752,0.13118166,0.35399532,0.091507755,1.0638977,0.14058256,1.0152178,-0.08956341,10.473587,3
0.57069516,-0.50651693,-0.39134693,0.29944614,0.7495467,-0.09166822,1.0271883,-0.21884474,10.856643,3
0.69468564,-0.14010382,0.7932329,-0.044224046,1.1035519,0.1316645,0.5268216,-0.26672673,8.900663,3
-0.14208326,-0.25809705,0.09623909,-0.001715338,1.020538,0.2660841,-0.009456515,0.49220255,7.31577,3
0.82973766,-0.8602056,-0.4662037,0.07342617,0.25120354,0.23058072,1.0224,1.2271909,14.481308,3
0.64770186,-1.1542368,0.22615433,0.3928348,0.06314071,-0.1529281,0.5292157,-0.11589849,8.589431,3
-0.5325382,0.60429686,0.14606667,0.2496776,0.18641257,-0.24616888,0.66328526,-0.5444422,11.479108,3
-0.26060402,-0.6756811,-0.27587128,-0.72162485,-0.11805834,-0.015042273,1.7166886,1.4354775,13.3441105,3
-0.3842724,0.017181277,0.019545555,-0.3482189,0.5875821,-0.29439008,1.3815148,1.3133786,12.886839,3
-1.0916612,0.21439111,0.15010548,0.02748153,1.8142385,-0.8087898,-0.16028476,0.61908984,6.9949613,3
-1.5599583,0.22347963,-0.21571636,-0.8099211,0.57922703,-0.2079305,1.288145,1.4666008,14.007277,3
-0.3268385,0.3981868,0.11174011,-0.20024316,-1.0169346,0.20902762,0.7446846,0.21927536,8.539155,3
-0.49008644,0.11609542,0.5491657,1.1502206,-0.6106444,0.17446628,0.1629186,-0.39361393,7.186489,3
-0.8731446,0.2258079,0.27248192,-0.10604588,0.42945355,0.18578655,1.8196348,-0.46304283,13.0927305,3
-0.8586776,0.07814312,0.063669205,-0.07623569,0.115835674,-0.012500146,1.0870407,-1.0567793,9.439336,3
-0.36897075,0.32993364,-0.06887627,-0.031031696,0.2691627,-0.033880413,1.213928,-0.5252894,10.164748,3
-0.25707495,0.11658347,-0.23588085,-6.11E-04,0.022739891,-0.14591302,0.924242,-0.23320934,8.034,3
-0.24184203,-0.21486914,0.3974657,0.07073836,0.09518845,-0.18097661,0.79017246,1.9214796,12.032145,3
0.45066404,0.659642,0.11395931,0.04899158,-0.16882728,-0.36484694,1.1468931,1.954997,12.58997,3
0.2000289,-0.29779637,-0.4514141,0.17140886,-0.43601954,-0.14896731,1.1277404,-0.44149593,9.800845,3
-0.018428683,0.4633844,-0.16648483,-0.13145787,0.27820352,-0.17792231,0.9433948,-1.4254705,10.514287,3
0.7466086,-0.10068953,0.27895546,-0.019913962,0.0656226,-0.007368882,1.4605201,-0.8365222,7.9406304,3
0.28123188,0.62040794,0.117614746,-0.017959198,-0.24677363,-0.1373609,0.7566551,-0.2930618,8.881511,3
0.28610206,-0.27222395,-0.30778027,0.14135431,-0.2206286,0.044432446,0.5459744,0.77231216,6.7100635,3
0.22978258,0.27158403,0.5706959,0.002443688,-3.51E-04,0.14314818,0.7997489,1.0212984,8.417056,3
0.20273435,-0.2900554,-0.4069023,0.14135431,-0.4833005,0.21180938,1.2043514,1.107486,11.333068,3
-0.24602687,-0.101202965,-0.6538143,-0.044715073,-0.5104228,0.21804017,1.2282925,0.21209303,10.526257,3
0.13140452,0.3040887,0.22655678,0.13842216,0.20331152,0.12396702,2.0470743,-0.45586053,13.545216,3
0.14173043,0.51391983,0.2717924,0.017470967,0.14747843,0.23465574,2.0566509,-0.87482786,12.563635,3
0.42666006,-0.5718638,-0.007521629,0.036896456,-0.089414865,0.122500956,1.8842756,2.1632833,13.638586,3
-0.20841563,0.33126688,-0.24101925,0.11997407,-0.016233275,0.13850561,1.9800395,1.3540782,13.109489,3
0.22962856,-0.036665082,-0.2706623,-0.01869223,0.08150508,0.21681848,0.6393442,1.2678907,10.186295,3
0.35282302,-0.4107319,0.32552433,-0.13267961,-0.023930173,-0.04084427,1.7382356,1.2152205,14.826057,3
0.16496468,0.20907772,0.32117462,0.08759823,-0.063758545,0.16636106,0.27304712,0.25039864,7.9621773,3
0.24002957,-0.19619203,-0.46640682,0.022724392,0.22053787,0.037102066,-0.01903291,-0.17335686,8.333262,3
-0.021230102,-0.32041514,-0.24333191,-0.037873387,-0.017577171,0.011934439,1.6233188,-0.3122146,9.786481,3
0.63063705,0.20580673,0.6378031,-0.06707272,-0.05972684,-0.113781534,0.76623154,-0.3289733,5.1802344,3
0.27000403,-0.10614824,-0.46123123,-0.003420618,0.029581573,-0.024717443,0.94578886,-0.010558151,10.531045,3
0.32981968,0.039855838,0.46948433,0.025412204,-0.005848573,-5.27E-04,1.0583115,0.4275619,7.734738,3
-0.055519223,0.034686446,-0.5056305,-0.07941219,0.015043,0.017065706,0.9266361,0.34616256,9.2478075,3
0.8079492,0.20622838,0.6892662,0.11753059,-0.12643327,0.07106615,1.5012197,0.90159357,10.935648,3
-0.004029632,-0.23931217,-0.894454,0.15833637,7.49E-04,-0.09924294,0.8117194,-0.101533905,10.389793,3
0.39032662,0.14959812,0.30660248,-0.09505031,-0.044088706,0.117614046,1.0583115,-0.101533905,10.380217,3
0.08657229,-0.14887255,-0.42327404,-0.005864076,0.029459406,-0.023862232,0.8093252,-0.5659891,7.385199,3
0.711197,-0.24898517,-0.34198284,-0.058398455,0.083215505,0.022196969,1.0630997,-0.34573197,9.8223915,3
0.2312578,0.1586169,0.09963322,0.09004169,0.093111515,0.054817155,1.9752513,1.5312415,12.874867,3
0.48713303,-0.41043007,-1.0126104,-0.043248996,0.03068114,0.002771476,1.7621765,0.6358485,11.103235,3
0.4988916,0.24483323,1.3195333,-0.034819067,0.022129029,0.02048655,0.8165076,0.63106036,10.693844,3
0.29893994,0.2621255,0.026089668,0.059009757,0.11461395,0.031970806,0.6991967,0.43953243,10.696238,3
0.5185602,-0.11794895,0.012280464,-0.003909306,0.068432584,0.050052397,1.2354748,0.8968053,12.616304,3
-0.5528902,0.2483306,-0.095581055,-0.05119024,-0.012445916,-0.041821655,1.3096918,0.10675269,11.100841,3
0.34975767,-0.87943524,0.15363884,0.010751444,-0.05361819,0.045532003,1.1780164,-0.42952543,10.368247,3
-0.29312706,0.44926107,0.3009405,-0.017714849,0.11852348,-0.2181172,0.37599337,-0.7694874,8.148917,3
-0.18540561,-0.13750124,-0.13859081,-0.046914183,-0.010368973,-0.045731187,0.8308722,0.41559145,7.471387,3
0.35894084,-0.29651225,-0.40827274,0.051190693,-0.095890045,0.004237546,0.89072466,0.7076715,8.373962,3
-0.55185056,0.2300638,0.48016167,-0.12742616,-0.02942795,-0.10034249,1.1229522,-0.087169304,8.833629,3
0.0482893,-0.41776335,-0.60372066,-0.030665178,0.17582259,-0.06918839,1.0247941,-0.22123884,10.839884,3
-0.14887643,0.044477284,-0.63578033,-0.018814413,-0.111161664,0.03551382,1.1995634,-1.1262082,7.998089,3
0.8667172,0.058884263,0.6621971,-0.04104988,-0.060948573,-0.059048034,0.7135613,-1.3249184,5.6590543,3
-0.12514138,0.43717253,-0.23634624,-0.029932156,-0.024296692,0.023296522,1.6041659,1.4857537,16.91132,3
1.0073953,0.21840662,0.43028355,-0.005741905,0.17997648,-0.030948263,2.9688025,1.4666008,17.811499,3
0.046625257,-0.097261965,-0.25509644,-0.0667062,-0.106885605,-0.070654474,0.67764986,-0.42473722,9.08501,3
0.5210438,0.13036275,0.04162121,0.074037045,-0.12960978,-0.17645624,0.5579449,-0.62105334,9.752963,3
0.46878016,0.04803729,0.18257332,0.026756098,0.062446102,-0.11475891,1.0487351,0.5281141,8.71153,3
0.32357228,0.10999709,0.08904362,0.022602227,-0.053740375,-0.037912115,0.8236898,0.7675239,7.466599,3
-0.17454636,-0.22730148,-0.8624077,-0.07977871,0.03397981,-0.030948263,1.5586782,-0.6809058,12.290708,3
-0.8185115,-0.3382274,0.91807175,0.027733486,-0.26705435,0.06874487,1.1109817,-1.365618,8.75223,3
1.9146886,1.3172833,-0.9266691,0.1775175,-0.002061218,-0.018242273,1.1133758,0.039717928,11.792735,3
-0.29433346,-0.82175654,1.0577765,-0.09578336,-0.039690487,-0.039133854,2.1500206,0.42516783,14.567495,3
-0.10733724,0.27969134,-0.37577724,0.07758005,-3.51E-04,0.08658211,0.93621254,0.6980951,9.6165,3
0.4415841,-0.6245301,-0.7238436,-0.10494633,-0.047998227,0.006192319,1.869911,0.78667676,16.904137,3
0.029152393,-0.14035705,0.44335842,0.08307783,0.004413956,0.22243844,1.2977214,-0.010558151,6.980597,3
0.4225762,-0.6002468,0.5243149,-0.043982033,0.054260515,-0.015554469,0.8452368,0.0971763,8.900663,3
0.8542155,-0.33089197,-1.359067,-0.0789235,0.11217048,0.0654462,1.0535233,0.31982747,7.16973,3
0.21607745,-0.14006495,0.5145693,0.037018634,0.25144762,-0.008957129,1.1780164,0.64303076,10.602868,3
-0.74219877,-1.0296271,-0.18771267,-0.041660745,-0.025640588,-0.020319214,1.5036138,0.118723184,10.423311,3
0.5308748,-0.01847756,0.2250967,-0.06157493,0.28553388,-0.1288088,1.9896158,0.7124597,13.564368,3
0.15890682,-0.48508024,-0.36279964,0.05717717,-0.0968674,0.044188097,0.69440854,-0.6090828,7.2056417,3
0.3348202,-0.04573238,-0.44172573,-0.06768358,-0.022464097,-0.12037886,0.91705966,-0.77666974,8.24468,3
-0.15913075,-0.3539691,1.4797039,-0.044104204,-0.14011663,-0.17291322,1.4150323,0.51853764,9.527918,3
0.2642761,-0.16566622,-0.66984177,-0.017714856,-0.025762752,-0.1680263,1.8603346,0.72921836,12.783892,3
-0.25306913,-0.252555,-0.74261665,0.20427337,-0.6019304,-0.14346954,0.99127674,-0.5061366,7.7993784,3
-0.080117226,-0.10766506,1.3534355,0.18643615,-1.1554962,-0.1817097,1.4293969,0.46107933,13.040061,3
2.2926116,0.286983,-1.4526472,-0.6217379,1.0659745,-0.47235912,0.6561029,-0.18772146,6.327008,3
-0.85393876,-0.28004688,0.70125294,-0.75796086,-0.57932836,-0.41701478,0.3400819,0.003806442,5.479497,3
-0.5110103,0.17211512,-0.3652525,0.2262645,0.15444233,0.18468699,1.1828047,0.0971763,10.363458,3
0.23558205,-0.19701573,0.21051979,0.19645432,0.50324607,0.01388921,1.5921955,0.35813308,10.600473,3
-0.24477667,-0.4708107,-0.15087795,-0.090407744,-0.0864827,0.11736968,1.7837235,0.0875999,12.700099,3
-0.61572236,-0.8320881,-0.29111862,0.56786007,0.56506556,-0.067844495,0.7853843,-1.171696,8.1872225,3
-0.11761467,-0.26837057,0.3139019,-0.061330568,0.7894974,-0.35372916,1.2570217,0.5999371,13.667315,3
0.47318047,-0.41866454,1.5878859,-0.090774275,0.030558962,-0.006391507,2.3223958,0.2719455,14.957734,3
-0.25654817,0.1608327,-1.4700451,0.42406255,-0.60718375,0.06080363,0.16770679,-0.72160554,7.579121,3
-0.14220038,-0.5512164,-0.3517275,0.21600753,-0.3513316,-0.16360162,-0.09564409,-1.2147899,6.384466,3
-0.0905838,-0.1570155,0.3642292,0.34908277,-0.38371274,0.038475834,1.3527856,-1.3919531,9.161621,3
0.08919352,-0.11265296,0.39369583,0.44638616,-0.27185813,-0.062234662,1.9393399,-0.92031574,8.170464,3
-0.027625263,-0.09868914,-1.022872,0.5656276,-0.11263265,-0.16041048,0.5507626,-1.3751943,8.883904,3
-0.07943404,-0.07780421,0.736516,0.483956,-0.015419977,-0.11039263,0.46696913,-0.6402061,10.301211,3
0.10156417,-0.3818148,0.33467674,0.1824659,0.11777255,-0.01943,2.0805917,-0.2786972,10.188689,3
0.09569159,-0.2078712,-0.4186163,-0.122164406,0.094332606,0.021117201,-0.27520147,-2.603367,4.0693727,3
-0.111887485,-0.18090749,-0.036898613,-0.35189104,0.04143235,-0.07334668,0.47893962,-0.29785,7.433081,3
0.035378963,-0.028296828,-0.3712244,-0.4652822,0.35791713,-0.129835,0.89311874,0.45389703,8.572673,3
-0.09658745,0.04162638,0.26766682,-0.34529433,0.77200323,0.016897092,0.3400819,-1.557146,8.61816,3
0.08287558,-0.21384093,-0.09520531,-0.33528477,0.62866855,-0.02533,1.3264506,-1.9545664,16.080566,3
-0.15019888,-0.068778574,-0.19038296,-0.48332244,0.00200884,-0.44631717,1.9058225,-0.8269458,12.290708,3
0.15417388,-0.30819324,0.13721085,-0.23127314,-0.29405457,-0.1680263,0.42626947,-1.6002398,8.376356,3
-0.19759457,0.23547198,-0.68870544,0.1026255,0.091278926,-0.054894164,2.0614388,-1.1405727,10.751302,3
0.07984095,0.44491386,1.0655546,-0.013560975,0.15126583,0.09134686,-0.80190325,-2.749407,3.561824,3
-0.014737934,-0.1279922,-0.41399097,-0.19486563,-0.38128603,0.076808274,1.091829,-0.56359494,3.4708483,3
0.17224407,0.07163366,0.07347584,-0.1159419,1.2084281,-0.23693183,-0.11719096,-0.38643166,4.05022,3
0.02552405,0.057457343,0.21090794,-0.22638623,-0.17237034,-0.271629,0.69440854,0.7340065,11.950746,3
0.13632336,-0.43416756,-0.5273409,-0.1457521,-0.18605366,0.01535528,-0.35899493,1.1529739,9.906186,3
-0.048042327,0.37693492,0.6628504,-0.29969,0.10752791,-0.007979755,1.9800395,1.4139307,10.385005,3
0.38229042,-0.16469383,-0.8691597,0.13109177,-0.02759536,0.19360563,1.3982735,-0.13744539,10.73215,3
-0.15933824,0.109302655,0.005954742,0.13793346,-0.13241975,-0.00614715,-0.9790665,-2.2562227,3.1955268,3
0.07684487,0.5084976,-0.06529713,0.38912106,-0.18287717,0.4198699,-0.8234501,-1.8683788,1.9386249,3
0.24284774,-0.11595731,0.999465,-0.34880358,0.5452736,-0.0705323,4.0198116,-2.0407538,16.25773,3
-0.39378944,-0.31172967,-0.035850525,0.1560151,-0.22062862,-0.020807905,1.8435758,-2.842777,8.268621,3
0.23427635,0.028029084,-0.0688467,-0.0978603,-0.083550565,0.0351473,1.9824336,-1.1262082,9.32442,3
0.041351676,-0.37854376,-0.71981335,0.07831308,-0.003038597,-0.10058684,1.410244,-1.4541997,7.5049043,3
-0.19942217,-0.36905617,-0.3005867,-0.001221504,0.06659997,0.016699193,7.373944,3.6332603,29.9017,3
-0.40969503,0.7538078,-0.2575178,0.007574946,0.026405081,-0.009323653,8.808009,1.4498422,29.657501,3
-0.1531543,-0.5767141,0.21304321,-0.16529977,-0.07817495,0.009613162,1.1780164,0.19533435,5.8769174,3
0.975066,0.009307444,1.2073593,-0.0373847,-0.13889492,0.03746859,1.189987,-0.45586053,6.252791,3
-0.60552686,-0.1450758,-0.765728,0.06670666,0.09482192,-0.032903027,3.7995546,1.8041688,10.353882,3
0.091624916,-0.04462421,1.2539539,-0.06438491,-5.95E-04,-0.040966444,6.9047003,1.0236925,21.500805,3
-0.121822715,0.31173664,-0.6233778,0.06181974,-0.008047692,-0.023373537,2.0518625,-1.3009773,5.0318003,3
0.3360909,-0.59769356,-0.14779472,-0.023579154,-0.048731275,-0.037179083,-0.4403943,-2.4764798,0.35373157,3
0.5239808,0.59537005,-0.32475758,-0.06377404,-0.05703905,0.04003422,4.127546,-0.7838521,13.765472,3
0.36551386,0.19044816,0.62449455,0.027489135,0.021762516,0.040889435,5.073215,0.8225882,15.769333,3
-0.028938174,0.38262242,-0.7075987,-0.077335246,-0.09246919,0.08707081,1.0798584,-0.33136737,2.6640368,3
0.21231985,0.14530057,-1.7427454,0.13927738,0.096410185,-0.05501633,-0.08367358,0.18096974,2.4150505,3
0.16516812,0.18419889,2.3541584,-0.08307736,-0.08599402,-0.005169762,-1.8193952,-1.1908488,0.4734365,3
0.52791864,0.30922306,0.85197544,3.67E-04,0.061102204,0.03319253,1.4677024,0.7986473,17.878534,3
0.38234162,-0.28918937,0.24767017,0.053267624,0.041921042,-0.010545375,-0.033397496,-1.995266,1.4214996,3
0.34048083,0.63535535,-1.680583,-0.052900646,-0.014767203,-0.07334226,0.6968026,-1.437441,4.991101,3
0.24916416,-0.13430408,1.6618385,0.007697132,0.044975366,0.07204354,3.737308,0.051688418,9.09698,3
-0.031885594,-0.719807,-0.08743954,0.19449954,0.0981206,-0.16668239,4.3741384,0.7555535,13.542822,3
0.5957036,0.24147981,-1.4811773,0.007452771,-0.033704005,-0.040233403,0.45978683,-0.75991106,7.2559185,3
-0.4278274,-0.26437467,0.26836967,0.040805995,0.11461395,-0.011156246,0.62258554,-0.807793,7.1194544,3
-0.50944406,0.16044532,0.23665619,-0.03677383,-0.099677384,-0.014088394,4.5417247,1.569547,12.482236,3
-0.5313443,0.029956281,0.22568512,-0.11019978,-0.112261206,0.046265043,5.681316,1.0021456,15.750181,3
-1.0157883,-0.5462038,0.1834259,0.0823448,0.07173124,-0.039989058,1.4796728,-3.1875274,13.681679,3
-0.68214303,0.05615151,-0.75422955,0.1455082,0.07600731,-0.009934514,3.1818771,-1.1286023,17.821077,3
-0.79765844,-0.55791295,-0.21190357,0.10225899,0.056948327,-0.096555136,0.90748334,0.23842812,6.403619,3
-0.49784678,0.38484085,0.65943336,-0.14685167,-0.18422107,0.0893921,2.370278,2.5032454,14.567495,3
-0.97934675,-0.50418115,-0.26518726,0.29883525,0.15407582,0.033436872,0.25389433,1.1433976,6.4299536,3
-0.08995292,-0.8111073,0.7211733,0.09957116,0.26061055,-0.018975316,1.99201,1.9645735,12.386472,3
-0.23978728,-1.5107298,-0.27356339,-0.13805522,-0.3855621,-0.051717665,4.876899,3.9684339,15.606535,3
0.24180464,-0.7250119,-0.88296986,0.026511744,-0.03602532,0.027694741,3.0525959,1.2942257,10.823125,3
-0.13732451,-1.5625455,-0.072431564,-0.22540884,0.0525501,0.15292202,-0.14592016,0.20012254,3.6527998,3
0.19305074,-0.7518432,1.0637178,-0.025533915,-0.007192478,-0.04854116,1.0152178,0.64542496,7.8783836,3
0.38994077,-0.030268818,0.20914364,0.11398757,-0.03541442,-0.10070901,2.3367603,-4.1906548,31.69009,3
0.61082226,-0.9267247,-0.5886421,-0.017837018,0.20538844,0.024762606,4.0102353,-3.9632154,24.002638,3
0.34302607,-0.37898934,-0.595912,-0.02235743,0.20245631,0.003137993,4.000659,-2.6632197,2.9058409,3
-0.3710368,-0.7523266,0.41734505,0.10885633,0.033735458,-0.18525268,3.6630912,-0.17335686,3.3032613,3
0.14638454,-1.459297,0.22323036,0.049235925,0.096654534,-0.0127445,0.45260453,5.95793,40.27533,3
0.68782234,-1.0389067,-0.9656286,-0.71556675,-0.44188386,0.007658394,4.7715583,5.445593,29.983097,3
-0.36595857,-0.18017578,0.5294552,0.09896033,0.045830574,-0.06491234,-1.5273151,2.4122696,2.982452,3
-1.1176927,-0.9208008,1.6653929,0.15674809,-0.006948133,-0.2963079,-1.1945354,2.7498376,6.9446855,3
-0.38266262,-0.48668095,-2.4346566,0.20989332,0.1758226,0.023052176,-0.050156206,0.10914679,10.622021,3
-0.8665474,-0.82854676,1.1202202,-0.11655278,-0.23724416,-0.16778198,-1.0054016,-2.2562227,8.785747,3
-0.80592895,0.003190875,0.3604517,-0.042149436,-0.27120823,-0.29239833,2.1763556,-1.4230764,6.5089593,3
-0.91950274,0.65288204,-1.3741627,0.304333,0.2690405,-0.026794381,1.189987,-1.755856,4.9791303,3
-1.7317016,0.8221595,1.241395,-0.31373993,-0.3313173,0.09892158,1.3671502,2.8503897,10.6076565,3
-0.74132794,0.023745835,0.45825577,0.11068891,0.002581361,-0.046464223,2.1236856,3.1879578,12.28592,3
-0.52928555,0.26513696,0.008994103,0.004031953,-0.19888182,0.00802491,-0.5648874,1.0883331,7.239159,3
-0.65268946,0.2737921,0.08461094,-0.049235474,-0.13486321,0.15609851,-2.1497808,-0.13026309,6.7124577,3
-0.20157394,0.2877861,-0.48784828,0.2984687,0.10606182,0.10881759,5.0756087,0.001412347,20.368397,3
-0.077555604,0.30943242,0.4269104,0.08344433,0.05902525,-0.02141877,4.153881,-1.3033714,15.103774,3
0.053403065,0.069502115,0.45158768,0.027000451,-0.037247024,0.23025751,3.5481744,-0.54923034,7.2511296,3
0.11099109,0.18118885,-0.13768196,0.09199645,0.073075145,0.035269476,2.1476266,0.30546287,6.8177977,3
0.59282047,0.34667528,-0.40517616,-0.11007761,0.09103456,0.31199118,-0.40208867,-1.049597,5.436403,3
0.69899017,-0.04978451,0.5656891,-0.0608419,0.096898876,0.2491943,-0.78753865,-1.3057656,2.8747175,3
0.15287495,0.0802739,0.021835327,-0.02406784,0.13196251,0.037102073,4.1155753,0.6358485,14.97928,3
1.2869368,-0.25536853,-0.16071796,0.009407544,0.08529244,0.065812714,6.0188837,1.5527884,16.564175,3
0.40990266,-0.13827533,0.21676826,0.19437738,0.13648291,-0.23558794,1.1516813,-0.12308079,4.706203,3
0.29057324,0.036868453,0.1636591,-0.13829955,-0.060948566,-0.035224307,-0.18422571,0.55923736,3.8084161,3
0.552919,-0.4651866,-0.3092308,-0.1566255,-0.10309823,0.20875505,5.188132,2.369176,17.708553,3
1.1671495,-1.5782593,0.11063671,0.10067074,0.10667271,-0.048174642,4.278374,1.8735976,13.090337,3
0.57222366,-0.5918544,-0.019058228,0.07562529,0.03556805,-0.02887132,5.1067324,2.07949,15.082227,3
1.0314536,-0.6163727,-0.27272987,0.13915521,-0.16100822,-0.22605845,2.1236856,0.4658675,8.529579,3
1.0075768,-0.64363307,0.08737087,0.10567983,-0.14097188,0.11578143,0.18207139,-1.1166317,3.4014192,3
1.5085834,-0.60397625,0.14449692,-0.037629064,-0.21537521,0.31101382,0.8955128,-0.17575097,5.402886,3
1.0430927,-0.1417201,0.5028658,-0.28771704,-0.2587466,0.392381,3.9527771,1.2822552,13.178919,3
1.0789495,-0.29982808,-0.08051586,0.30250043,0.05010664,0.55328274,1.9393399,0.57599604,6.365313,3
0.65784156,0.18441892,0.09993839,-0.027977383,0.10044188,0.45835438,1.2785686,1.3684428,4.6032567,3
0.90556526,-0.77427465,0.21368885,-0.1340235,-0.21085477,0.6945147,0.3807816,0.87286437,5.0341945,3
1.2962993,0.15312874,-0.4098568,0.62320435,-0.00413816,0.40936303,2.2673316,0.33419207,11.371374,3
0.9982739,-0.14290798,1.0063124,0.2526539,0.15028845,0.314679,5.264743,1.5719411,17.552937,3
0.99241483,-0.34828728,-0.009982109,-0.2111146,0.064400874,0.60593927,1.9991924,-0.7958226,6.985385,3
0.946722,-0.58419496,-0.05497551,-0.24165785,0.02530552,0.90220875,2.2697256,-0.587536,7.0955133,3
0.93959343,-0.55258703,0.5252924,0.040072948,0.109849215,0.56525564,1.2737803,-0.757517,4.955189,3
1.0023146,-0.5477785,0.17101479,-0.14074299,-0.04066786,0.5521832,2.2457845,0.19294026,7.5288453,3
0.7475358,-0.42542937,-0.12677574,0.017348787,0.14637892,0.49415106,6.1936536,0.23842812,19.34851,3
0.4332533,-0.7280407,0.24391651,-0.023334814,-0.033948354,0.33581492,3.9982648,-0.27390903,8.6971655,3
0.16433027,-0.565597,0.20097351,-0.021868719,0.050717507,0.27081892,1.6903536,-0.321791,6.0899916,3
-0.2684945,-0.4260414,-0.041962624,0.118263654,0.25144765,0.21840674,3.3781934,-0.58514184,14.97928,3
-0.7025935,0.8756286,-0.3866577,-0.024434358,0.051328365,0.17955571,3.5457802,0.21688122,11.780765,3
-0.9852368,0.75207794,-0.11661339,-0.032619953,0.1410033,0.07179918,4.338227,1.0715746,13.090337,3
-1.0450532,0.06936124,-0.040958405,0.1279153,0.089079805,0.19971424,1.2378688,1.423507,7.2894354,3
-1.4059982,-0.3678866,1.0915041,0.21490243,-0.010246802,-0.24976002,0.3137468,0.97102237,4.936036,3
-0.742625,-0.24122542,-0.82040215,0.036041252,-0.03187141,0.19116214,2.6743283,3.0921936,18.73562,3
-0.5345925,-0.5997548,-0.16901684,0.054978058,0.03251373,0.14864597,2.8730383,3.556649,16.267305,3
-1.2605481,0.25827014,-0.5983429,-0.07318137,0.096287996,0.35450742,3.39974,1.4737831,9.920549,3
-0.40166807,-0.2094343,0.15329075,-0.08490997,0.21210797,0.26385507,0.802143,-0.029710934,2.1708524,3
-0.81405044,0.09712821,-0.10761261,0.014905322,0.12890817,0.12946482,-0.54334056,0.8489233,3.2673497,3
-0.5802673,-0.26987347,0.11090374,-0.12644874,0.08798025,-0.10608462,1.312086,0.84174097,12.613911,3
-0.49599218,-0.052149296,-0.3253584,-0.11899623,0.21528444,0.051396303,0.64413244,-2.1149712,7.696432,3
-0.5681343,-0.08614543,-0.8464222,-0.15039466,0.17570043,-0.13992652,-1.50098,-2.7278605,2.4078684,3
-0.20199314,-0.7924533,1.2889118,0.11960753,0.116568714,-0.31377864,1.6352893,-1.2147899,12.381683,3
-0.35914585,-1.1575439,-0.35173225,-0.13671128,0.13037427,-0.42190164,0.27544123,-1.9641427,7.9693594,3
-0.4164141,-1.0207441,-0.25372124,-0.070615746,0.093233675,-0.3843946,3.1459658,4.5166826,22.760101,3
-0.5592846,-1.0827384,0.25926113,0.20451772,0.089812845,-0.66343766,1.5395254,2.539157,20.828064,3
-0.6199181,-0.70831496,0.08654308,6.11E-04,0.015165173,-0.5709527,-2.5112896,-1.3751943,6.683728,3
0,0,0,0.10543546,0.028726365,-0.51133233,-1.4722509,-0.70484686,18.747593,3
0,0,0,0.17055364,0.02664943,-0.52587086,-0.18183163,0.63345444,3.899392,3
0.01993274,0.05060202,0.016729355,0.12767093,0.11485829,-0.47468042,-2.6740885,-1.7462797,1.237154,3
0.06406246,0.11957684,0.15638638,0.09957118,0.046441443,-0.5236718,-0.433212,1.2080382,1.2802478,3
0.26448214,-0.091703966,-0.3191576,0.105435476,0.066233456,-0.5526267,1.4270027,3.7170534,7.5384216,3
0.025568306,-0.23747179,-0.058994293,0.081245236,0.1251208,-0.5253822,3.6654851,-0.34573197,4.7971787,3
-0.21311167,0.12892807,0.29082966,0.2850297,-0.008414206,-0.75482297,1.5107961,-1.4302588,-0.000595,3
-0.19460267,0.28147325,0.14259624,0.32363632,-0.1723703,-0.89214534,1.7334473,-0.321791,12.168609,3
-2.0673795,0.05759892,-0.20773697,0.28478536,-0.36063883,-0.7382074,-2.3772202,-1.8755611,3.6168883,3
2.3567972,-0.4130435,0.97038937,0.066828825,-0.4680288,-0.45794272,7.232692,5.4791102,19.777056,3
0.23033619,0.32153952,-1.0473194,-0.055588447,-0.058749463,0.17246969,5.0037866,1.856839,19.951822,3
0,0,0,-0.015271384,0.084681585,-0.107428536,0.42387533,-0.6713294,5.2209344,3
0.580186,-0.6652678,-0.017019272,0.059864953,0.22481394,0.22744757,0.04321365,-1.0639616,6.9901733,3
-0.029259533,0.017293334,-0.6786394,0.006719708,-0.11116165,-0.2867784,3.710973,5.3115234,12.393654,3
0.085617125,-0.16182268,0.102101326,0.1775175,0.04570841,-0.31512251,8.144844,5.75922,22.125666,3
0.7834128,0.58346105,-0.2451992,-0.19584301,-0.008902899,0.12335618,5.7363806,0.18575794,8.833629,3
0.12199497,0.41533947,0.13940144,-0.033719502,0.058536556,-0.01384405,5.915938,0.07802349,14.021641,3
0.27791417,-0.17616999,0.03339863,-0.017470509,0.06623346,-0.022029636,0.9960649,-0.8844042,4.770844,3
0.28117806,-1.4280589,0.2043314,0.06731752,3.82E-04,-0.30962476,2.0949562,0.12111728,2.980058,3
0.73379636,-0.45194942,0.16539669,0.13451263,-0.021853233,-0.09227908,4.424414,2.8886955,16.279276,3
0.21552718,-0.67567825,0.44088554,-0.22088847,-0.18715324,-0.0686997,4.8385935,1.9909085,15.865097,3
0.566936,-0.8888618,0.032170296,0.045082044,-0.001694693,0.044432446,2.181144,-2.067089,6.7340045,3
0,0,0,0.018326173,0.002459183,0.001427569,3.9982648,0.20012254,10.341911,3
-0.21289432,0.54348445,-0.90364075,0.015760535,-0.06363638,-0.04915203,0.25868255,-0.075198814,6.097174,3
-0.9023242,0.3026838,0.33679676,0.062430605,-0.056916866,0.009735333,0.73750234,0.43953243,7.1362133,3
1.4987316,-0.22271134,0.36405563,0.016982267,-0.093446575,0.049075022,4.383714,0.307857,10.660327,3
0.7845131,0.032300226,-0.18491268,-0.014782697,-0.027473187,0.12812093,3.466775,0.5520551,10.533439,3
-0.093266815,0.5335735,-0.33921432,-0.034452543,-0.015500233,0.11602579,2.1691735,-1.4805347,9.173591,3
0.3534704,0.0482167,0.4546337,-0.005497561,0.032758072,0.12396704,2.308031,-1.7582502,8.721107,3
0.49895787,-0.3253463,0.19721794,0.007941463,0.035812397,0.09672247,2.7126338,-1.753462,11.541355,3
0.5880244,-0.6200435,-0.006168366,0.009407545,0.06867692,0.02305218,2.7796686,-1.3728004,9.561435,3
0.19119751,-0.40587056,0.1856327,0.11068891,0.1508993,-0.21042031,0.46218094,0.013382837,6.149844,3
0.15616229,-0.4287122,-0.08293533,-0.006352772,0.04436451,-0.0668671,0.5459744,0.78907084,8.958122,3
0.006668538,-0.39266706,-5.00E-04,0.045448568,-0.189108,-0.17437929,1.4796728,0.7699181,8.081882,3
-0.06685242,-0.06956136,-0.18743229,-6.11E-04,-0.4768252,-0.18830703,1.2594159,-0.101533905,8.936576,3
-0.52550524,-0.96844864,-0.03862381,0.3843563,-1.3259273,-0.12428838,2.2793021,-0.64499426,12.704886,3
-0.10281959,-0.851437,0.33367634,0.25485295,-0.08098498,1.0308567,2.3128192,-0.34094378,12.419989,3
-0.4337277,-0.16982126,-0.6528158,-0.35588956,0.0308033,-0.78255624,1.2785686,1.0093279,11.740065,3
-0.33093628,-1.4305876,0.7353859,0.25277606,1.1734868,-0.23888661,1.872305,2.2422886,11.321097,3
-0.2014476,0.03053546,-0.6987715,-0.3821568,0.1544423,0.304783,1.7597824,-0.35291427,8.531973,3
-0.6329934,-1.0552542,0.40373802,0.5799552,0.17313479,0.2858462,1.1349227,-1.0543852,6.157027,3
-0.5489802,-0.3943398,-0.28541756,0.41386607,-0.2681187,0.4459811,2.566594,-0.41994902,10.157566,3
-0.52951044,-0.40474832,0.18132687,0.31479654,-0.001604848,0.3643835,2.1691735,-0.4965602,5.9535284,3
-0.2707853,-0.74126506,0.007652283,-0.05973797,-0.23131485,0.3167465,0.4837278,-0.6809058,10.176719,3
-0.30130723,-2.32596,0.6198492,0.045380138,-0.24320927,0.3754045,0.3209291,-0.9370744,6.7986455,3
1.1507214,-0.46034887,-0.7285948,0.49990362,-0.015445854,0.5782984,-1.7882719,3.025159,16.688667,3
-0.6324219,0.8980838,-0.58661175,0.5080831,-0.044954106,0.56886077,0.05518415,3.6667774,19.930277,3
-0.9960735,-0.13702057,0.69775105,0.3840325,-0.087887906,0.4544648,-0.48109397,-0.04886373,5.8577642,3
0.19669482,-0.76590425,0.19721508,0.28831983,-0.22296491,0.43470025,-1.7308135,-0.8101871,6.446713,3
0.6253731,-0.121346295,-0.14928818,0.31076413,-0.29539824,0.61588794,0.17249498,1.0476335,12.070451,3
-0.8038862,-0.09247566,0.06351566,0.22832859,-0.42241797,0.6550934,0.25150025,1.6006703,13.901936,3
0.627456,0.15321389,-0.06069088,0.23102917,-0.3201374,0.16121754,0.6393442,0.07802349,6.291096,3
0.61245996,-0.4155429,0.08011055,0.28128645,0.023523914,-0.1316888,0.27783534,-0.40797853,5.4124618,3
-0.04658705,0.29765335,0.15744781,-0.020164615,0.37760755,-0.11418663,0.00490807,1.3229549,5.7979116,3
0.24217398,0.56580913,0.058737755,-0.09834899,0.3567607,0.10087635,0.115036614,2.8384192,9.410606,3
-0.25931948,-0.11565733,-0.05232048,-0.14086518,0.018830363,0.10356416,-0.35420677,-1.1262082,7.923872,3
-0.18681458,-0.13576275,-0.44817448,-0.18228182,-0.052762993,0.010346191,-0.2536546,-1.7031859,6.762734,3
0.30260122,-0.18948036,0.9439907,-0.10396895,0.12341039,-0.04866334,-1.0125839,-1.5643282,16.061413,3
-0.11623247,-1.1498048,0.46944332,-0.09663857,0.122433014,-0.067111455,0.69440854,-0.59950644,13.131037,3
-0.08053443,1.1207138,-1.4131546,0.05754368,-0.03651399,0.09904375,0.65131474,-0.40079626,13.775049,3
-0.38567996,-0.58181,1.2499418,0.029566081,-0.08489447,0.05298455,0.3496583,0.044506133,12.956266,3
-0.12461007,0.20403308,-0.68691826,0.13842216,-0.03651398,-0.17156932,-0.33505395,0.6980951,8.0411825,3
-0.46636748,0.32028803,0.04928398,-0.35735562,-0.8983219,-0.71584976,0.45739275,1.8472625,9.999555,3
0.038909584,0.15936333,0.15315819,0.030421287,-0.02967229,-0.030581744,-0.45475885,-1.2961891,8.594219,3
-0.20897156,-0.087454155,0.36354828,2.45E-04,0.13306208,-0.33393717,-0.4786999,-1.5858752,8.096247,3
0.13212991,0.48161036,-0.46136665,-0.29211527,-0.1366958,-0.09240125,0.00251396,1.5623648,14.842816,3
-0.8097184,-0.34616852,0.55602837,-0.1844809,-0.10810734,0.02231914,0.48851603,1.2319791,14.854788,3
-0.25049567,1.2462256,-0.5013943,-0.13231309,0.03251373,0.045043312,0.05757825,-1.0902967,9.870274,3
0.26395822,-0.030231178,0.4444933,0.084788255,-0.08245101,-0.083971314,0.43823993,-0.75033474,9.76254,3
0.11909294,0.4766127,-0.47078323,0.015760537,0.007712621,0.06972225,0.5651272,-0.54683626,7.220007,3
0.09299368,0.5428983,-0.08877087,-0.017837023,0.15370929,0.108084545,-0.09564409,-0.07998701,7.68925,3
0.4617824,0.9660407,-0.008666992,-0.094439454,-0.032726627,0.083649956,0.007302165,-0.6162652,5.726089,3
0.8104676,0.03747481,0.7196665,0.017104441,0.001359626,0.036857724,-0.16746703,-1.0711439,6.748369,3
0.8799882,0.10288286,-0.71475506,-0.05803192,0.014920825,-0.10083117,0.5052747,0.96384,11.294763,3
0.51775694,-0.09594226,0.69042873,0.009407546,0.003436566,-0.046097707,0.42387533,0.5855725,11.352221,3
0.8316957,-0.07906431,-0.2471714,-0.069271825,-0.20706742,-0.001260227,0.64173836,0.111540884,9.7577505,3
-0.15525082,-0.25861233,-0.08163643,0.16029112,-0.012812433,0.14840163,0.20122418,-0.17814507,9.781692,3
1.0530497,0.7664772,-0.5576458,-0.09395076,-0.040912215,0.11052802,0.7566551,0.046900213,10.423311,3
0.20242043,-0.4112293,0.3029728,-0.110199764,-0.08733794,0.14974554,0.658497,0.19294026,9.781692,3
-1.7577401,0.7157332,-0.61672497,0.18338183,-0.07206631,0.19971427,-0.24886641,-0.82934,7.16973,3
0.039734423,0.16702288,0.9382467,0.032131713,-0.17078201,0.2322123,-0.16267884,-0.5276835,7.9933004,3
0.5942974,0.010195643,-0.23950481,-0.029076928,-0.05251864,-0.05807066,0.6991967,0.94708145,10.124049,3
0.25325918,-0.40080953,0.31750584,0.5044523,-0.108229496,0.15084507,0.6465265,0.5927547,10.41134,3
0.04813814,-0.57906747,-0.05972767,0.55686456,0.19646983,-0.5192735,0.17249498,-0.13744539,9.022763,3
0.25686434,0.22321203,-0.20040417,-0.18069357,0.005024826,-0.34273362,0.1461599,-0.36727887,8.912635,3
-0.18519184,-0.7934106,0.17272282,-0.23628226,-0.17224813,-0.16704892,0.63695014,2.1417365,13.566763,3
-0.121559545,0.23154771,0.44087029,0.0615754,-0.09662307,0.43599674,1.1588637,2.1465247,13.01612,3
-0.03389238,0.025222033,-0.76449966,0.14135431,0.07258645,-0.22007199,-0.9335786,0.5688138,7.650944,3
0.10941431,0.10374998,0.1843605,0.12058493,-0.26705435,-0.23961964,-0.10282639,0.8513174,9.954068,3
-1.0081706,0.022901624,-0.38550758,-0.20586118,0.2295787,0.1448586,1.120558,1.9095091,12.024962,3
-0.05382465,-0.357886,0.99946976,0.03555255,-0.13816187,-0.076030076,1.0367646,1.5480001,10.643568,3
-0.23849717,-0.14764956,-0.21994114,0.051312864,0.2579228,0.24198613,-0.30153656,1.3349254,10.499922,3
-0.8725593,0.4052511,0.0941515,-0.33463147,-0.019043252,0.12408921,0.24192384,0.9518695,13.791808,3
-0.22011751,1.0353241,-0.62864685,-4.88E-04,0.057559185,0.05506149,-0.77077997,0.2863101,5.7356653,3
0.3002985,-0.6700046,0.13528538,-0.10140331,-0.1352297,0.27937102,-0.4786999,1.253526,8.170464,3
0.18143268,-1.1886017,0.026161194,0.19010131,0.12915252,0.16550584,-0.09803818,1.1936735,10.832702,3
-0.29643592,-0.33843434,-0.4373722,0.09773859,-0.028939262,-0.37193292,0.1461599,1.205644,8.230316,3
0.44836333,-0.39594352,0.87767506,0.2057395,0.08761373,-0.02178529,-0.27041328,0.40362093,9.805633,3
0.30749193,-0.9077968,-0.33693695,-0.16957581,-0.16320732,0.07033311,-0.44757655,0.58796656,11.031412,3
-0.2719952,-0.7194329,0.0831871,0.18032749,0.08712503,0.09928809,-0.24407819,1.2271909,8.594219,3
-0.19390689,-0.102199264,-0.20238113,-0.2129472,-0.16662817,0.22243844,-0.31829524,1.9190856,8.330869,3
0.26734906,-0.69964516,0.18640709,-0.02541175,0.11265918,0.30185083,-0.5505228,1.1888855,8.723501,3
-0.053480715,-0.1257255,-0.39765167,0.1359787,-2.29E-04,0.42316857,-0.65825725,1.0284808,8.393115,3
-0.72621727,-0.043193907,0.2595806,0.15467116,-0.32349825,-0.28018108,0.07673103,0.59036064,15.841156,3
0.053460367,-0.3540828,0.63626575,0.16200154,-0.09662308,-0.34994182,0.036031358,-0.587536,11.775977,3
-0.039415065,-0.08705379,-0.34397697,0.059498448,-0.048120417,0.06288056,-0.28238377,2.5487335,14.043188,3
-0.74768054,0.014751434,0.099295616,-0.02211309,-0.066446364,-0.25721258,1.6951417,1.2726787,20.593443,3
0.16873911,0.20151746,0.096853256,0.03518605,0.048640557,0.008391429,0.73032,2.3045352,8.838418,3
-0.06062831,0.17903729,-0.850626,0.012217524,0.10899401,0.2438187,0.70637906,1.5025123,8.347628,3
-0.89438844,0.16938147,0.8613024,-0.18887916,0.09702104,0.3068599,0.26825893,0.44432065,12.317042,3
0.11236614,0.49440792,0.23049068,0.002688033,0.064889565,-1.61E-04,0.49330422,0.793859,9.015581,3
-0.13125387,0.29616258,-0.22701454,0.100792915,0.14576805,-0.05709327,0.18446548,0.99975157,9.733809,3
-0.35487416,0.05780431,0.28384686,0.0163714,0.28528953,-0.019708352,0.036031358,1.0955155,7.8855658,3
0.731094,0.20764863,-0.22129154,0.06353016,0.049251415,-0.18158749,0.22037697,1.7371339,10.2269945,3
-0.33152083,0.3344778,-0.34398556,0.019303551,0.26244318,-0.004558904,0.16531269,1.6964343,9.099374,3
0,0,0,-0.29553613,-0.12777716,-0.07517487,-0.035791606,0.7483711,8.759412,3
-0.05465141,-0.077389136,0.06615639,0.023946125,0.21027537,-0.26222166,0.17967728,0.45389703,9.185562,3
0.10738602,0.20264116,-0.021821022,-0.17263015,-0.44115078,0.04333289,0.632162,1.1146683,11.696971,3
-0.27100208,-0.032192096,-0.18087578,-0.29272613,-0.24090932,0.1840761,0.6872262,1.1457915,10.447251,3
0.8434105,-0.23291181,0.01308918,-0.059620164,-0.17542462,-0.14945601,-0.4403943,0.722036,7.78262,3
-0.5960498,-0.03101036,-0.27854824,0.19511043,0.22713523,-0.010911901,-0.12197915,0.93032277,8.979669,3
0.07401055,-0.46317863,0.51578426,0.09798293,0.21491794,0.040889427,0.9529712,2.3308704,13.775049,3
0.35944483,-0.35328585,-0.4432783,-0.16468892,-0.17725721,0.07656392,1.6137424,2.2351065,15.630476,3
-0.7700656,-0.096065074,-0.07997322,0.3062878,0.1207226,-0.026427861,-0.00466831,0.058870718,8.156099,3
0.3081694,0.12666684,0.5439453,0.049724612,0.070509516,0.026228683,0.20601237,0.8273765,9.743387,3
-0.6445934,0.0177356,0.057658195,-0.202196,-0.059238143,0.036613382,0.70877314,1.1194565,10.0570135,3
0.108446315,0.2490483,-0.07362175,0.10360289,0.16116185,0.12396702,0.4549986,0.5496609,8.247075,3
0.4979277,-0.27528346,0.024128914,-0.05461108,0.03471284,0.08096216,0.4693632,0.09238809,9.657199,3
-0.4359104,0.08681089,-0.355484,-0.07611354,-0.20609002,0.3558513,0.37120518,0.29109827,7.6677027,3
-0.005455636,-0.20097058,0.104917526,0.24959953,0.08822459,-0.21616246,0.1294012,0.6669718,5.6758127,3
0.17712803,-0.53766596,0.25819397,0.001344122,-0.06876764,-0.019586178,0.8380544,2.247077,11.83104,3
0.049080588,0.03231316,-0.3284788,-0.4577818,-0.12545589,0.18896304,-0.17225522,1.1721267,7.2990117,3
-0.011740044,0.10629375,-0.011576653,-0.120828815,-0.0296723,0.05945973,0.1365835,1.131427,10.514287,3
-0.09259695,0.20501035,-0.12387848,0.44837493,0.024205973,-0.08140569,1.5179784,0.91835225,11.177452,3
0.3259604,-0.39746147,0.52828693,0.045815077,0.052305754,0.01718788,1.2426571,0.29109827,9.300479,3
-0.2710712,-0.05482623,0.289999,-0.18423656,0.02945941,0.018409608,0.5435803,0.60472524,8.862359,3
-0.66287357,-0.31314626,-0.22153187,0.17177539,0.10545097,-0.18244271,0.9386065,1.2750729,9.592559,3
-0.018130332,-0.42101714,0.5581665,0.08234479,-0.003282944,-0.030581743,0.49330422,1.0021456,8.294957,3
-0.13428986,0.41259974,-0.9739733,-0.15711418,-0.041645247,0.07607524,0.76144326,1.2750729,10.224601,3
0.043662965,-0.10386616,0.67232704,0.184237,-0.049219973,-0.05061811,0.24910614,0.55923736,8.156099,3
0.030459583,-0.105910935,0.042263985,0.020647448,0.026038561,-0.09924294,0.4909101,0.5568433,10.133625,3
-0.03749883,-0.25172797,-0.30730915,0.013072748,0.00624655,0.0473646,0.9122715,1.2463437,10.466405,3
-0.045167506,-0.2575912,-0.1945982,-0.07367007,-0.088070974,0.112604946,0.5747036,0.97102237,9.424972,3
-0.42943507,-1.0274677,0.9576359,0.24446829,0.1341616,-0.12355535,0.5316098,1.3301371,12.5181465,3
-0.3252473,0.0720222,-0.7868948,-0.16175675,0.002825707,-0.033025194,0.8811482,1.569547,10.887766,3
-0.32730448,0.321631,0.16693878,-0.014782699,-0.20792261,0.14681338,0.5292157,0.4730498,10.068984,3
0.08656977,-0.052669525,0.03506565,0.23225096,0.05914744,-0.108283736,0.7518668,0.865682,9.3124485,3
0.41700518,0.1051172,-0.037861824,-0.2294406,-0.07744191,0.095500745,1.0894349,0.8082236,10.351488,3
0.2608709,-0.68491304,0.18574524,-0.0703714,-0.09870002,0.118102744,0.560339,0.39643863,7.641368,3
-0.6619265,-0.42932326,-0.7234421,0.109711535,0.06598911,-0.14175913,1.359968,1.2702847,11.723307,3
0.31795114,-0.010801911,0.71167374,-0.11826314,-0.18336587,0.13300781,1.0224,1.0643923,9.831969,3
-0.77152056,-0.4779882,-0.14315414,0.11569801,0.066966504,-0.06833318,0.50288063,0.8345587,9.568618,3
0.9043981,0.19631267,0.5182152,-0.02638911,0.05719267,0.020364372,0.40232846,0.7986473,7.5815153,3
-0.11110611,-0.120844364,-0.5188074,-0.14550778,-0.08489447,0.031237768,0.68962026,0.87047017,8.328474,3
-0.8799303,0.4883908,-0.31769657,0.006353224,0.09237846,0.035758168,0.45978683,0.8058295,6.6286645,3
-0.5667175,0.91221344,0.082074165,-0.01075099,0.15199888,-0.16546068,2.011163,1.6581286,13.140613,3
-1.0607083,0.696259,0.063396454,-0.2465448,0.029948093,0.10368632,1.192381,1.0979097,8.474514,3
-0.19835052,-0.3809824,1.0920897,0.11178846,0.19268246,0.040522903,0.9984591,0.4562911,10.456828,3
-0.38980138,-0.028839989,-0.004571915,0.075136594,0.036911957,-0.21885027,1.628107,1.4330834,10.914101,3
-0.088277474,0.19567938,-0.25179672,-0.05656585,0.002825704,0.13948299,0.658497,1.0093279,7.2319775,3
-0.39768347,-0.022855438,0.00511837,0.16297893,-0.00621509,-0.25440258,0.754261,1.1864913,8.814477,3
-0.97963667,0.36327586,-0.08707428,0.14844033,-0.011346358,-0.22019413,0.5555508,0.19533435,5.7500296,3
0.6048104,-0.26053452,0.5548973,-0.11508668,0.04412016,0.15988588,0.7997489,0.6071193,5.680601,3
-0.674433,0.42917264,-0.6934805,0.08197827,-0.034192692,-0.052206345,0.9817004,0.6550013,9.664382,3
0.555071,-0.2867344,0.60370636,-0.22638626,-0.1453701,0.012423134,1.4198203,1.0811509,9.551859,3
0.7687156,0.039188534,-0.5821438,0.068294905,0.1162022,-0.13430658,0.68004394,0.89919937,10.286847,3
-0.68205124,-0.3067362,0.6301203,-0.03396385,-0.061437264,-0.06112498,0.91945386,1.131427,10.021102,3
1.5093701,-1.1488973,0.01689434,-0.104335465,-0.06278117,0.04162246,0.9410007,0.99975157,9.0371275,3
0.3757227,-0.15936136,-0.8261423,0.20720556,0.07258645,0.06825617,0.68962026,0.5544491,8.883904,3
0.5566643,-0.6508856,0.60785484,-0.07550265,-0.07951887,-0.22605842,0.8979069,0.5831783,9.017975,3
-0.08717877,-2.0397887,0.51100445,-0.02712217,-0.005726404,-1.61E-04,1.3001155,0.9327167,7.593486,3
0.46153408,0.43473995,-0.6406164,-0.001343685,0.12854168,0.08352779,0.74707866,0.38446817,9.073039,3
-0.633969,-0.7866494,0.21936512,-0.002321054,0.14088114,0.003382342,1.0583115,0.68851864,8.922211,3
0.25757182,-0.21242975,0.39452553,-0.093462065,-0.01220156,0.06703444,0.96494174,1.2080382,8.780959,3
-0.49471897,-0.7838261,-0.1802702,0.085154764,-0.005482051,-0.016287506,1.5107961,1.2870435,10.581321,3
0,0,0,0.097127706,-0.09149179,0.20460115,0.90508914,0.64781904,8.93897,3
0,0,0,-0.006841466,8.71E-04,-0.01555447,0.9553653,0.5209317,8.045971,3
0.3990668,-0.0823684,0.7896595,-0.049846344,0.023106411,-0.10327463,2.1260796,1.8376862,14.615377,3
0.5846412,0.09042384,-0.8012781,-0.045692444,-0.002916423,0.039912052,1.1588637,0.76034164,10.540622,3
-0.66926205,-0.1032086,-0.19441223,0.059742805,0.043875806,-0.17315757,0.7518668,0.8824407,9.427366,3
0.8953638,-0.27163363,0.5389414,-0.059986692,-0.037124846,0.010957053,0.96254754,0.48980853,10.765667,3
0.22729516,0.12834488,-0.3804531,0.42137474,0.06574477,0.07644176,1.1971692,0.39165044,8.338051,3
0.04603958,0.019071542,-0.16034603,0.07904612,-0.13046497,-0.15373206,1.9153988,1.1960677,11.90047,3
0.15163273,-0.2386194,0.37525845,-0.104824156,-0.047265206,0.08316127,1.0319765,0.72921836,7.2702827,3
0.8645842,0.029099286,0.034872055,-0.07220399,-0.044821743,0.034047738,1.0894349,1.1697326,9.506371,3
-0.6155409,0.38247794,-0.34878826,-0.047525045,0.031658523,-0.011767108,0.8715718,-0.46064872,8.271016,3
-0.04960537,0.113339946,0.19659138,0.13194698,0.10056407,-0.08971344,0.7853843,-1.025656,7.8257136,3
-0.004512057,0.15269525,-0.51891994,0.021869207,-0.19094059,-0.099975966,1.6496538,-0.6952704,10.229389,3
0.21301603,0.12331748,0.3805561,0.13573438,-0.047265206,0.2491943,1.482067,-0.4798015,10.042648,3
0,0,0,0.10299202,0.10667271,0.049319364,0.39993438,0.07323532,8.582249,3
-0.8068041,0.55440605,-1.7635465,0.031520844,-0.06998937,0.09256858,0.1461599,0.25279272,7.679673,3
-0.57211185,-0.21026061,0.3764038,0.09089691,0.016264727,-0.28054762,0.9577594,-0.5803536,9.657199,3
-0.42749107,4.565132,2.043189,-0.16908714,-0.054962102,0.03722424,1.1588637,-0.45825464,11.53896,3
2.313541,-2.560447,1.6306667,-0.20891552,-0.106396906,0.14400338,0.5962505,-0.613871,9.235838,3
0,0,0,-0.37262726,-0.14451487,0.17259188,0.63455606,-0.14941588,10.406551,3
-0.6855354,0.23215938,1.9110069,0.07024967,-0.03578095,0.14754638,0.93142426,0.41080323,11.321097,3
0.24176276,0.51245403,-0.3332243,0.059742793,-0.043355677,-0.014210571,1.2498393,0.5281141,12.068057,3
-0.41801047,-0.3562404,0.19638634,-0.00109933,-0.003771639,0.04259985,1.3551797,-0.22842112,11.428832,3
0.8494747,-0.95895815,2.0599346,0.14343126,0.11889001,0.045287654,1.0247941,-0.39840215,9.144862,3
1.8486023,-0.02591814,-0.17437553,-0.18350354,-0.10664125,0.08193954,1.2258984,0.5544491,9.82718,3
-1.9519522,-0.08712906,-1.3955507,0.104702435,0.10435142,0.18749696,1.4365791,1.4282953,10.820731,3
-0.23640323,0.39571413,1.0457926,-0.016248787,0.03312458,-0.17633405,1.4126381,0.2432163,11.641907,3
-0.033825636,0.035895854,-0.1869297,-0.1494173,-0.1037091,0.19360563,1.6257129,0.2575809,13.061607,3
-0.1852622,-0.0648206,0.3768692,0.11545365,0.38791475,-0.13051921,1.2929332,-0.2834854,8.220739,3
-0.08283985,-0.06380907,0.021578789,-0.11594189,-0.13645147,0.023540867,1.1660459,-0.07759291,9.870274,3
-0.575999,2.074057,-0.5548954,0.01099579,0.07955031,0.030138215,0.73750234,0.37728584,7.9502068,3
-0.92353165,0.5299933,0.28380013,0.4233295,-0.09051442,-0.35617265,0.79017246,0.36531535,9.116133,3
0.22389174,-1.0746698,3.064104,-0.30958602,0.19280463,-0.010056688,0.9817004,-0.19011556,8.510426,3
-0.7236398,0.37873316,-2.7997222,0.11594237,0.08431505,-0.22275981,0.61300915,-0.659359,7.9909062,3
-0.09655714,0.49367797,0.94240475,0.058887586,0.10740575,0.16807143,1.5084021,0.3533449,9.824786,3
-0.2867514,-1.8022066,-0.19992924,-0.38753235,-0.16931598,-0.0768853,0.98888266,0.030141532,7.6700974,3
-2.354183,0.68765956,-0.61763096,0.106168516,-0.028084043,0.043943763,1.3910912,0.32700977,11.984262,3
0.51152015,2.9473987,1.9972029,0.1802053,-0.031993587,-0.08555956,1.2450513,-0.23320934,10.104896,3
1.3709219,-2.5282412,-0.6092272,0.06401885,-0.024663208,0.019020477,1.3264506,-0.34094378,9.796057,3
0.39569333,1.2275844,0.1580162,0.05815455,0.026405092,-0.045609012,1.5323431,-0.14702177,10.157566,3
-0.5276804,-0.7954489,-0.274539,-0.06792795,-0.07011154,0.39299184,0.23234746,-0.59711236,9.09698,3
-0.20550248,0.37652582,0.3095522,0.07977916,0.09799841,-0.20773251,0.9577594,0.022959232,10.911707,3
0.9955697,-1.8295965,0.49682045,-0.1172858,-0.12521154,0.18884088,0.79017246,0.11393498,10.511892,3
-0.27316704,-0.09948856,-1.4106035,0.15161684,0.037767164,0.13997169,1.2235043,0.001412347,13.459028,3
-1.5679483,-0.47003835,-0.11515999,0.031032141,0.041432355,-0.15458728,0.6393442,-0.5276835,11.062534,3
0.68402886,-1.6251416,2.1034107,0.005131492,-0.013545469,-0.0718762,1.3791207,-0.20208605,12.719252,3
-0.18615234,-0.2956422,-2.3084936,0.0610867,-0.0599712,0.10869542,1.3144801,-0.20687425,12.360137,3
-0.12841696,0.31480366,1.5261049,0.1473408,0.12939687,-0.25501347,0.8284781,-0.70245266,9.860698,3
-0.51473594,-1.3161219,-0.3328228,0.03946209,-0.057894245,-0.19734785,1.482067,-0.67372346,9.305266,3
-0.38327566,1.285777,-1.1889334,-0.0906521,-0.084772296,0.109184116,1.2977214,-0.77666974,7.859231,3
-0.11671552,-0.019810863,1.5673227,-0.13231309,-0.20230268,-0.23461057,1.189987,-0.08956341,9.523129,3
-1.2328984,-1.1021762,-0.1883831,0.09981552,0.007223925,0.051762827,0.6608912,-0.3146087,7.6293974,3
-1.7648271,1.7777233,-0.2579956,0.41355562,0.21051972,0.37002337,1.652048,0.18575794,10.976348,3
1.0187418,-1.9005319,1.3115959,0.82026935,-0.3983903,0.15744242,1.4892492,0.07802349,9.705081,3
1.8858979,-0.46899164,-1.7549324,-0.5044519,-0.43235436,-0.49007425,1.0152178,-0.4367077,12.941903,3
-0.5839399,-0.7158312,0.8191843,-1.5880038,-0.7232481,0.4395398,0.8165076,-0.7790638,9.877456,3
0.8568572,0.19160496,0.56907463,0.44324368,0.11766827,0.35597345,1.6400775,-1.0998731,9.271749,3
0.6906461,-1.6259029,-0.49427795,0.27183506,0.44191524,-0.0497629,1.2689922,-1.1070553,9.582982,3
0.18705547,-1.6852878,0.019119263,-0.35759997,0.22872348,0.18395397,0.67764986,-0.22602704,8.371569,3
0.2885815,-0.6105348,1.0913076,0.04483771,0.008567831,-0.058192834,0.50766885,-0.4845897,7.2176123,3
1.3644359,-0.37854898,-0.45456982,-0.24092484,-0.32215434,-0.20296776,3.10766,1.2631024,13.6840725,3
-0.4231454,0.2054233,-0.1535759,0.006597549,0.413449,0.20460111,1.4940375,0.23363993,8.69956,3
1.3361763,1.1403701,1.5518608,0.30164522,0.1473563,-0.57571745,1.0295823,-0.42234313,11.258851,3
0,0,0,0.25766295,0.04057712,-0.1088946,1.601772,0.2647632,10.851854,3
-0.21611649,-0.27935433,0.9284115,-0.39938313,-0.20144744,-0.05990325,1.0870407,0.45150295,9.391454,3
-0.3133515,2.2723982,0.72869015,0.1984091,-0.11910291,-0.20638862,0.73032,-0.053651925,9.468065,3
1.3430619,0.14745367,1.844367,0.001710649,-0.1204468,0.16355106,1.3432093,-0.8772218,8.982062,3
-1.3132701,-0.017935276,-1.259099,0.37287205,0.13098514,-0.06540103,1.4557319,-0.6713294,10.600473,3
-0.41589212,0.6955366,0.5951977,-0.4146548,-0.09173615,0.11174972,0.59385633,0.5233259,7.7419205,3
-1.0514796,-0.88317686,0.8125372,-0.52375513,-0.11641508,-0.09985379,0.5052747,0.39883277,7.9693594,3
-0.8058304,0.78550524,-0.6894026,0.33194408,-0.07805281,0.3850506,1.2594159,-0.35291427,9.345965,3
-1.260059,-0.35122108,0.6515465,0.056688454,0.26097715,0.06727879,0.73510814,-0.88919234,6.2623672,3
-0.8400585,-1.1675416,1.1829615,0.005009317,-0.07157761,0.33007285,1.0343705,0.13308778,10.016314,3
-0.98061234,0.47414324,-1.2984657,0.56724924,0.20257847,-0.17731145,0.73510814,0.50656724,8.268621,3
-0.99316555,0.20241147,0.9796667,0.4120896,0.013210401,0.67728823,1.0104295,0.21209303,12.171002,3
-0.89118594,-0.27093768,0.32330132,-1.2741414,-0.17505811,1.3690314,0.900301,0.061264813,8.601401,3
-0.77310514,0.67343634,0.63426876,0.6916212,-0.080618404,-0.5905003,1.2809627,-0.34812608,13.1741295,3
-0.49064514,0.36607844,-0.29356003,-0.15564813,0.8157645,-0.19624826,1.043947,-0.4798015,12.6641865,3
-0.6379473,-0.91396517,0.60730076,-0.099937215,0.17741086,-0.27700457,0.5435803,-0.1087162,8.249469,3
-1.1026286,-1.9709042,-1.1469812,-0.27598846,-0.006215093,-0.1003425,-0.023821115,-0.44149593,8.318898,3
0,0,0,0.15711464,-0.10358694,-0.3577609,0.8452368,0.35095075,8.2925625,3
0,0,0,0.2217441,0.21675052,-0.20895424,1.0224,0.3174334,8.256651,3
0.21979547,-0.19667323,-0.5011692,-0.05387804,-0.45581156,-0.004681086,0.7710197,-0.6665412,9.640441,3
-0.32679862,0.2248463,-0.5426607,0.35760042,-0.12618893,0.2097324,1.070282,-0.2906677,9.633258,3
-0.38110852,1.3147005,-0.6695719,0.21856765,0.16067316,-0.40174317,1.6376834,0.19294026,11.251669,3
0.2320319,0.4115157,0.8966007,-0.29003832,-0.19973701,0.005092759,1.0056413,0.11393498,9.855908,3
0.21991016,0.8139609,-0.061587334,0.45387268,0.027504643,-0.23876444,1.6065601,-0.24757393,12.434354,3
-0.27760938,-1.2516817,-0.45677757,0.075991794,-0.10847385,-0.2110312,1.9201871,0.21688122,11.783159,3
-0.99620193,1.0582381,-0.54356956,-0.2591286,-0.08770444,0.17894484,1.2546276,-0.14941588,11.402496,3
0.89459115,1.1890697,-0.7682829,-0.17947184,0.13281775,0.053839758,1.2546276,-0.2571503,10.7129965,3
0,0,0,-0.5108049,-0.0701116,0.56073534,1.2977214,-0.54683626,10.885372,3
0.40582007,-0.12669605,0.13590336,0.5863081,-0.5546495,-0.18720748,1.4222145,-0.39840215,10.806367,3
0.29594123,-0.30536038,-0.3222456,0.21563545,0.2834569,-0.4204356,1.0535233,-0.47501332,10.262906,3
-0.02018698,-0.75046563,0.6816826,0.16774368,0.3906026,-0.44572544,0.8667836,-0.58993006,9.554253,3
0.10485163,-0.7268197,-0.120939255,-0.2819749,-0.11824769,-0.3875711,1.6951417,-0.5947182,13.0927305,3
-0.17480457,0.54715925,0.45141602,-0.10042595,0.12182216,-0.5924551,1.3168743,-0.9945327,10.600473,3
-0.73561996,-0.003555954,0.52380466,0.111055404,0.29323077,-0.1842753,0.9026952,-0.587536,9.633258,3
-0.87080324,-0.38041633,-0.65208054,0.053023286,-0.11360512,-0.1291753,0.62019145,-0.32657918,9.403425,3
-0.06966305,2.0220737,-0.091900826,0.19926429,-0.29124457,-0.4778569,0.44542226,-0.69048214,9.401031,3
0.40828246,-0.7306594,-0.6103754,-0.2585177,0.1857186,-0.2668642,0.76623154,-0.53247166,9.104162,3
-2.190745,0.6804851,-0.83617973,-0.49199024,-0.09234701,-0.011644944,0.9410007,-0.4510723,10.801578,3
0.33664805,0.4799344,1.3658953,-0.10079242,-0.27047518,-0.9568971,0.5268216,-0.6689353,9.676352,3
0.7117412,-0.84946424,0.7465191,0.2335949,0.59573096,-0.6850622,0.26107663,-0.053651925,8.124976,3
-0.05634886,1.3483155,-1.735405,0.42235208,0.100075364,-1.2983704,-0.12676734,-0.34812608,7.480963,3
1.9931715,1.05611,0.53290176,-0.17238581,0.17948781,-0.57852733,1.7526001,1.5001181,12.405624,3
-0.37678692,-0.66815305,-1.0128031,-0.2296849,0.09445542,-0.51255405,0.84763086,0.6645777,9.937309,3
0,0,0,0.058032364,0.277104,-0.35605046,0.73032,1.1122742,10.916494,3
0.989619,0.9480647,-1.314228,-0.3615095,-0.14549224,-0.006880172,1.1037993,1.2080382,10.088137,3
-0.34993222,-0.92940724,0.31433964,0.20354035,0.09262283,-0.25220346,0.5052747,1.0212984,9.503977,3
0.2808873,0.6659237,1.7411976,-0.10531284,-0.19753793,-0.3532405,0.46696913,0.99975157,9.573406,3
0.025805116,0.1012992,-1.4094791,0.08258914,-0.06278117,-0.29655227,1.1468931,0.5209317,8.826447,3
0.17015016,0.54399145,-0.928627,0.10946718,-0.1090847,-0.034369104,1.9632808,0.937505,10.595686,3
0.53426373,0.8994283,0.13110065,0.2759889,-0.12203504,-0.37999636,1.8459699,1.5527884,10.059408,3
-1.6148092,0.41058373,-0.36993408,-0.30665383,-0.2499501,0.062269695,1.601772,1.5001181,10.3467,3
-0.6754339,-0.7300483,0.45053482,0.3171612,0.04986229,0.2610451,1.6688067,0.9351109,9.451306,3
-0.2997803,0.42803586,-1.6657114,-0.0802674,-0.08330622,-0.122577965,2.011163,0.96384,10.157566,3
-1.1375196,-0.119180776,1.3021393,-0.29578048,0.008567832,-0.24328484,1.4653082,1.4546303,10.966771,3
0.06513516,-0.04173164,-0.9001894,0.05241242,0.16323878,-0.070776634,1.2833567,1.2726787,10.454433,3
-0.6550499,-0.33025387,0.24398041,0.012095351,0.20893146,-0.07260924,1.7741469,0.6933069,10.487952,3
0.27819225,-0.06355789,-0.03166294,0.44593143,-0.29991886,-0.27248418,2.3678837,1.3373195,12.398441,3
-1.0600047,-0.28589645,-0.26041603,-0.11972926,0.044486675,0.3465661,0.29698813,0.83216465,7.593486,3
0.82355875,0.2048527,0.64250946,0.19034567,-0.07560933,-0.010911896,1.5754368,1.277467,11.033806,3
0.58521646,0.11465064,-0.178195,-0.15381552,0.054504856,0.19470516,0.7159554,0.030141532,8.2925625,3
0.44447118,0.019548059,-0.10719681,0.34587184,0.038378026,-0.016409675,0.82129574,0.24561042,9.484824,3
-0.7286034,-1.3100052,0.577055,0.2086716,-0.04286697,-0.007613231,1.1085876,1.2104323,10.306,3
-0.9682999,-0.41627288,-0.30689144,0.1207071,-0.1909406,-0.13699439,0.73032,1.155368,10.17193,3
-0.9702723,-1.0806427,0.66738987,-0.32705683,-0.07719757,0.02708389,1.628107,0.64781904,10.655538,3
-0.09672137,-0.0537605,-0.24127483,-0.23029578,0.3991547,0.02378522,1.4126381,0.4491088,9.800845,3
-1.1916039,-0.27925932,-1.0246534,0.16371198,-0.29625368,-0.08531521,1.6592302,-0.058440126,10.274877,3
-0.97967994,-0.20895165,-0.11559868,0.28087583,0.048640564,0.36867943,1.5586782,-0.010558151,10.100108,3
-0.6275145,0.064804405,0.56881714,-0.6478829,-0.27071953,-0.11158241,0.52442753,0.3389803,9.128103,3
-0.6180745,-0.7008569,-0.22960567,-0.110810615,0.38864785,-0.18708529,0.8955128,0.81780005,10.207842,3
-0.31325036,0.8605782,-1.2647314,-0.014782699,0.083093315,-0.21518506,0.560339,0.8632879,7.612639,3
-1.5688609,-0.6895783,1.3475904,-0.20476167,-0.02771753,-0.042799037,0.48612192,0.5137495,7.895142,3
1.155013,0.44508123,1.2735939,-0.1028694,0.0890798,0.21889542,1.1133758,1.0045397,8.486485,3
0.33999836,0.20993876,-1.6487236,0.6862456,-0.22514902,0.068378344,1.0559174,0.9662342,8.685195,3
-0.6824322,-0.8285806,0.10438061,0.27635545,0.1366051,-0.57718354,1.1612577,0.6550013,9.24302,3
-0.20812872,-0.38579473,1.4182014,0.022113532,-0.052885167,0.18994042,1.0487351,1.0093279,9.585376,3
0.1543892,1.9404364,-1.3885431,0.19950865,0.48919618,0.23673263,1.3216623,0.67415404,11.0769,3
-0.5138236,0.6927813,-0.5217447,0.014538818,-1.0300244,0.5140652,1.6640185,1.1194565,10.87819,3
-0.9699427,-0.5008129,0.53971195,0.21783456,0.34857515,0.1859087,0.9410007,0.8680761,10.365852,3
-1.9045484,0.5738642,-0.15936852,-0.36114302,0.096410185,-0.20602208,0.703985,0.5688138,9.68114,3
0.8099823,1.4592253,2.1771584,0.19743165,-0.11091731,0.66885835,1.5682545,0.5281141,10.195871,3
0.6209891,0.061045736,-1.2842283,-0.13121352,-0.39692417,0.31394592,1.3695444,0.69091284,9.101768,3
-0.5477468,-0.58587885,-0.6356487,0.37348288,0.03007026,-0.09960946,0.9984591,1.543212,10.662721,3
1.0875165,0.81565225,0.60396004,-0.26829153,-0.16369599,-0.55555886,0.89311874,1.8089569,11.261245,3
1.110067,-1.0463251,0.48594666,-0.6950416,0.6303059,0.106496304,0.11743072,1.1936735,8.493667,3
-0.5501495,1.1818783,-1.390523,0.18594745,-0.0608264,-0.45281142,0.19404188,0.8345587,8.469727,3
1.7358768,-0.4689588,1.2403708,0.2917492,-0.28403643,-0.1477456,1.5060079,0.85849965,9.650017,3
-0.5972606,-0.07294267,-0.8551159,-0.074280925,-0.12802151,-0.24792741,1.1444991,0.57599604,8.405086,3
1.4209123,0.5807122,-0.1581707,0.15271643,0.6410572,-0.21213076,1.5227666,1.5096946,9.566224,3
0.64163846,0.22046806,0.5466261,0.027977835,-0.056794696,0.386761,1.5347371,1.7275575,8.95094,3
0.19663939,-0.18905467,0.006440163,-0.0871977,0.5048937,0.13746476,0.98888266,1.4282953,10.023496,3
-1.7173905,1.1488508,0.25791264,-0.7371103,0.3109286,0.10634482,1.0726762,1.34929,8.55352,3
1.0202041,-0.00747335,0.24371624,-1.1591744,0.22810972,0.08331038,1.2450513,1.1386093,10.085743,3
-0.25318438,0.25192463,-0.15042114,-0.076943204,0.37547702,0.09889637,1.6185306,1.2391614,11.747248,3
0.17673105,-0.1666426,-0.7850628,0.92586595,0.11941902,0.0560875,1.2570217,0.793859,9.422578,3
0.19413707,0.7638509,1.3895979,0.73205525,0.12938768,-0.06400508,1.0798584,0.49938485,9.530312,3
1.1510757,0.22810137,-0.53508663,0.019689063,-0.10038064,-0.13946669,1.0894349,1.4067483,8.749836,3
-0.79381704,0.15623853,-0.028882027,-0.024971446,-0.5022821,-0.22301993,0.972124,1.4618126,9.025157,3
-0.6228857,0.57315004,-0.9502382,-0.26029137,-0.25966802,-0.31402296,1.5898014,1.229585,9.946885,3
0.106927454,0.3831371,1.7977686,-0.21636805,0.09518845,-0.29960656,1.5730428,0.95905185,8.864753,3
0.2571439,0.04636228,-0.45053387,-0.3988945,0.54111975,0.070943974,1.6568363,0.4586852,11.388133,3
0.07922846,-0.1602748,0.59987354,0.16334546,-0.43785205,0.1552433,1.5084021,0.53050816,10.164748,3
0.16119832,-0.0785166,-0.6153765,0.29297096,8.71E-04,-0.13833827,1.213928,0.8776525,10.681873,3
-0.36245465,-0.28874284,-0.38064957,-0.19254436,-0.05569513,-0.08751434,1.3886971,0.81780005,10.729755,3
-0.64353955,-0.4740889,0.68409157,0.21746802,0.007223931,0.09366815,1.6233188,0.7268243,9.32442,3
-0.56577086,-0.36426747,-0.09807587,-0.032742113,-0.1384062,-0.30522653,1.3096918,0.5520551,9.034734,3
0.5018382,-0.56977224,-0.003976822,0.10531331,-0.012568086,-0.074075304,1.0415528,0.75794756,9.424972,3
-0.9476628,-0.25431234,0.08116531,0.034330826,-0.016966317,-0.17413495,1.1947751,0.87286437,9.628469,3
-0.5206389,-0.9825865,0.7960434,-0.06927183,-0.01036897,0.32824022,0.8691777,1.4498422,9.2478075,3
0.37938476,-0.048054934,-0.52850914,-0.057543248,0.0046583,-0.070776634,0.972124,1.5144827,11.002683,3
-0.41476792,-0.7088147,-0.042895317,-0.16749887,0.22652437,-0.1973478,0.56273305,0.7627357,7.3133764,3
-0.6465579,0.2463251,0.08031654,-0.20854902,0.14466847,-0.10095336,-0.06452079,0.3533449,8.235105,3
0.12778914,-0.6332069,0.58379745,0.005498012,-0.040667865,0.05628322,2.566594,2.0196373,9.72184,3
-0.7031091,-0.1697799,-1.0755062,0.041783355,-0.38262996,-0.18170968,1.8651227,1.713193,7.720373,3
-0.27993548,-0.3153108,0.09082794,0.1716532,0.039599754,0.030871248,0.73032,1.1194565,9.855908,3
0.6374829,-1.1889646,0.67819595,0.02248005,-0.014522851,-0.08421566,0.43345174,1.2654965,8.51282,3
-0.6057029,-0.2705338,-0.2830925,0.016860088,-0.05581731,0.108328894,1.1995634,1.8137451,7.428293,3
0.15448475,-1.4156789,0.9302187,-0.076846555,-0.1881306,0.12860961,2.260149,2.4888809,11.026624,3
0.40649736,0.15505147,-1.3683567,0.036041234,-0.037491366,0.26446593,0.9553653,0.892017,8.678013,3
-0.53811914,-0.41875255,0.40465164,0.36248738,-0.107618645,0.009613151,1.3575739,0.48262617,9.939703,3
-0.29806674,-0.929276,1.3619461,-0.28918314,-0.07341021,-0.12868662,0.8236898,-0.70484686,7.8017726,3
-0.85583556,-0.4244073,-1.162386,-0.05070154,-0.084283605,-0.04731944,1.2378688,-0.2715149,8.306928,3
-1.0012443,0.93458164,0.14377975,-0.074891776,0.5213277,0.057504952,2.0829859,0.4419265,10.593292,3
0.7128911,-0.34083578,0.7842035,-0.14428602,-0.04030134,-0.1405374,1.4341849,0.39643863,8.962911,3
-7.87E-04,-0.15862757,-0.67934895,0.13927738,-0.1538,0.2676424,1.091829,0.70048916,9.594953,3
0.06465542,-1.30323,0.3633995,0.31642812,-0.06583549,-0.19111699,1.723871,1.0931214,10.669903,3
-0.594192,-0.6560292,-0.21296692,-0.32351372,-0.111406006,-0.19759217,1.0678879,0.50417304,7.234371,3
1.1658698,-0.4047706,0.9652386,-0.124249645,0.12231085,0.19519386,1.9297634,0.6645777,11.708941,3
-0.21113217,-2.7180326,0.21733189,0.3630982,-0.43504217,0.015721804,1.383909,0.23842812,8.9724865,3
-1.0838501,1.09E-04,-2.30721,-0.3715277,-0.16051953,0.9371502,1.3982735,0.34616256,10.100108,3
0.24691474,2.9513748,1.5344563,0.1054355,0.18449688,0.18896304,1.4916433,0.8800466,10.238965,3
3.1330428,-2.0261223,0.5834551,0.16908759,-0.09051442,-0.20492253,1.8603346,1.1984618,11.53896,3
-0.79371226,-0.6542748,-2.5682569,0.30750948,0.020052085,0.05127413,1.1612577,1.423507,13.044848,3
0.6230253,-0.117954165,1.7193756,-0.2229654,0.3486973,-0.005169775,0.70877314,0.60233116,11.898076,3
1.1280432,0.236472,-0.7639828,0.20659466,0.17948778,-0.09056867,1.7885116,0.2982806,9.997161,3
-1.9671125,-0.04783234,0.42451477,-0.22088845,-0.112261206,0.61204785,2.0829859,0.65739536,10.059408,3
1.8327101,0.32066515,-0.48077488,0.004031934,0.027138105,-0.44487023,0.1341894,-0.17096277,9.396243,3
-0.09773922,0.8729922,2.943058,0.08491041,-0.34145764,-0.033147376,1.0391587,0.9063817,11.342645,3
-0.13801062,-0.18007791,-2.360137,-0.24251309,0.4608521,-0.066622764,0.09348973,0.35813308,10.69145,3
0,0,0,0.122906215,0.081138566,-0.1409039,0.7446846,0.4730498,11.289975,3
0,0,0,-0.12986962,-0.07780843,0.114193186,0.99127674,0.5783901,11.742458,3
-0.19965208,0.2050556,0.52847195,-0.23958091,-0.5829935,-0.08775868,1.2426571,0.8800466,11.955534,3
0,0,0,0.05082419,0.3996434,0.05017458,0.8811482,0.49220255,9.448913,3
0.14737797,-0.041992977,0.32338047,0.16041331,-0.27071956,-0.29691875,1.7334473,0.70048916,11.663454,3
0.12987733,-0.48259565,-0.37756824,-0.20280688,-0.023563655,0.053839765,1.1588637,0.01577694,8.56549,3
-0.3938793,-0.80107087,0.2786684,-0.07977871,0.3975665,0.28963357,0.8260839,-0.38882574,9.183167,3
0.32399774,-0.37805295,-0.23294735,0.09712773,0.03459066,0.007047532,1.750206,0.34616256,10.387399,3
0.35837972,-0.042661533,-0.10835457,0.06548493,-0.08709358,-0.029848699,1.0176119,0.2695514,8.589431,3
0.2002269,-2.2957544,0.1914959,-0.5387825,-0.19423926,0.22268277,0.59146225,0.07562941,8.998822,3
0.1252085,1.014134,-0.6239586,0.120340616,-0.1936284,-0.16558284,0.8835423,0.14984646,9.42976,3
1.428058,0.8626268,0.7279415,-0.019547442,-0.014645022,-0.068699695,0.6465265,0.058870718,10.018708,3
0.092318416,0.9592453,-0.43202114,0.16517806,0.023595104,-0.2285019,0.6848321,0.22406355,10.315576,3
0.17752469,-1.1894915,-0.70748043,0.1540603,0.07185342,-0.16643804,0.39993438,0.44671467,9.427366,3
-1.552483,-1.3639402,-0.98007774,-0.07305921,-0.039568305,0.06373577,0.3281114,0.20251662,10.174325,3
-1.3105317,1.9963555,3.4125376,-0.020647014,-0.3217878,-0.059658907,1.5634663,1.1745207,9.4824295,3
-0.34899807,-1.0837644,-1.6020689,0.100059874,0.13367294,0.21022114,1.0535233,0.6693659,8.335657,3
-0.5850282,-0.0672282,-0.5534916,-0.005741909,-0.14304881,-0.36814559,1.0128236,0.81780005,9.745781,3
-0.69339204,1.1644787,1.0580015,-0.03579645,0.14760065,0.13874997,0.2921999,0.34616256,7.9789357,3
-0.39735866,0.64999247,0.45486736,0.35442394,-0.13865057,0.11150539,2.207479,1.5743353,11.086475,3
-1.8114896,-0.6180313,0.51634884,-0.006963641,0.029215075,-0.32184207,1.8914578,1.3397136,8.812081,3
-0.6548221,1.1834937,-0.3559456,0.12388359,0.03911107,0.2713076,1.0224,1.1888855,10.997895,3
2.2412205,0.83481854,1.6227407,-0.1064124,-0.034925744,0.23844305,0.9290302,1.5168769,9.98519,3
0.84374046,0.3256861,-1.0319643,0.20463987,-0.12435633,-0.107550696,0.5292157,1.1840972,9.709868,3
0.12772572,0.08123553,-0.046891212,-0.20219603,-0.005848579,0.028183429,0.62258554,1.3588665,9.841545,3
-1.7957023,0.5951695,0.25216198,-0.008307529,0.10459578,0.307593,1.020006,1.6629169,9.415395,3
-0.13967562,0.45766032,-0.09798145,0.28845054,0.16238357,-0.43680677,0.9697299,1.3708369,9.480036,3
0.12252724,-0.15178227,1.2719879,-0.064262755,-0.092347026,-0.13076356,0.632162,0.9494755,10.677085,3
-1.0558945,-0.28134322,-0.18001175,0.32449156,0.05694831,-0.2605112,0.7686256,1.0045397,9.894215,3
-0.3236971,-0.8916623,0.031716347,-0.4412884,-0.028939258,-0.1571529,0.36402288,0.39404452,8.464938,3
-0.033354282,-0.1901635,0.23400784,0.009651903,-0.21659689,-0.010789736,0.7446846,0.67415404,9.987585,3
0.47385067,-0.7520588,-0.6799326,0.19364433,-0.030405337,-0.16668239,0.10785432,0.48980853,5.879311,3
-0.525666,-0.30370104,-0.2366972,-3.66E-04,-0.3164122,0.305516,-0.5505228,0.7387948,4.241748,3
0.19908512,0.69015336,0.74233913,-0.3345093,-0.18153326,0.4170599,1.7549943,1.8137451,11.270822,3
0.38618457,0.3043716,-0.41117,0.14929557,0.16543789,0.060925797,1.6209247,1.4259012,8.476909,3
0.72969687,-0.34452534,-0.36837006,-0.063896224,0.12939687,0.0862156,0.3544465,0.7986473,12.745586,3
0.22745168,0.09605014,-0.35327148,0.048747238,0.09140109,-0.3727882,1.2235043,1.0069339,13.504516,3
-0.2545346,-0.20401657,1.0476618,-0.0476472,-0.06840111,0.014011381,0.7446846,1.4498422,8.49606,3
-0.028864026,0.068869114,-0.7213497,-0.46046957,0.42114586,-0.3237968,0.8452368,1.5982763,9.326814,3
-0.31086123,-0.026025772,0.20921326,0.883555,-0.3490324,-0.868688,1.8962461,2.1848304,13.588308,3
0.39933264,-0.34381437,0.5093107,-0.40353703,-0.008780722,0.12775439,2.1715677,2.086672,11.780765,3
-0.36695445,-0.302985,-0.43905354,-1.272431,-0.19863749,0.50025976,0.12461301,-0.0967457,9.855908,3
-0.79018575,0.16091478,0.56151676,0.661811,0.8009816,-0.9306299,0.5890682,0.12590548,10.203053,3
0.74391556,0.001449943,1.2426367,0.05131287,-0.14414833,-0.41835868,0.9433948,1.0021456,7.3588643,3
-0.2747581,0.18675038,-1.1332264,0.404637,0.13012992,-0.39758924,0.07912513,0.6358485,7.6222153,3
-0.5890969,-0.26601052,-0.851614,-0.02822172,-0.004749009,-0.43619594,0.7279259,1.205644,8.730682,3
-0.17255819,0.35184646,0.81467533,-0.085520834,-0.25153837,0.022196976,0.96494174,1.2511319,9.731416,3
0.3341663,-0.26926327,0.54731846,0.049968988,0.2505924,-0.44719142,1.3934853,0.9398991,10.519074,3
-0.7872666,0.28891444,-0.6980362,-0.21783412,0.036911912,-0.1820762,1.9489162,1.3133786,12.00581,3
0.171211,-0.043373346,-0.021487236,-0.22125499,1.38E-04,-0.34749836,-0.75641537,0.5113554,3.9831853,3
0.9363978,-0.3199728,-0.37845993,-0.6115975,0.012233024,-0.48775285,-0.0381857,0.9829929,7.6940384,3
-0.68587446,-0.43532598,0.6171274,0.3568674,0.043020602,-0.73405355,1.6568363,1.5025123,7.7419205,3
0.17210758,0.16832131,-0.30309868,0.03738515,-0.15905344,-0.3852498,1.264204,0.892017,6.0373216,3
-0.642717,-0.44261867,0.97053623,0.037262976,-0.37212306,0.13484043,1.9967983,0.99975157,12.180579,3
-0.34544003,-0.4398546,-0.23683453,-0.05656585,0.07759554,0.045409836,2.5330763,1.3468959,11.651484,3
-0.9581796,0.14495775,-0.59663105,-0.04679201,0.23055609,-0.32807288,0.5651272,1.3804133,10.143201,3
0.8756639,-0.39382476,1.405139,-0.06756142,0.061713062,-0.38476112,0.96494174,1.545606,11.843011,3
-0.338575,-0.8922291,-1.355504,-0.030909527,-0.015866756,-0.23974183,1.0774643,1.5336355,11.08887,3
-0.5839912,1.1954817,-0.35809898,0.028344354,0.070265174,-0.46466216,0.40232846,0.5664196,9.365119,3
0.26416504,-0.32297814,1.665618,-0.039706007,0.30972415,-0.7730267,2.5809584,1.2702847,13.849266,3
0.05515027,-0.2507267,-1.6128254,0.31410685,-0.19949271,-0.5674097,1.3432093,-0.12786898,9.329207,3
-0.6139236,0.2659381,1.7083311,-0.24630043,0.06269045,-0.042188168,2.5235002,2.1561012,12.6881275,3
1.2420667,-0.40339968,-0.53547287,-0.30469912,0.14442413,-0.47480252,2.0039806,1.5503943,11.876529,3
-0.28583437,-1.0278016,-0.71749973,-0.13451219,0.24680509,-0.03754561,0.60822093,1.229585,8.151311,3
-0.62755656,0.053813398,0.21267986,0.14233169,-0.13095365,-0.34248927,0.5531567,1.3397136,8.306928,3
-1.1001636,0.85480344,1.1033735,0.27171284,-0.049097836,0.24980518,1.3096918,1.4809654,9.980403,3
1.2243637,-0.62780726,-0.6758385,-0.4499627,-0.636261,0.47997898,1.2067456,1.7730454,9.527918,3
-1.0232084,-0.1353054,-1.1351004,0.4812394,0.048518393,0.013156185,1.5371312,1.1026977,11.3282795,3
0.49679768,-0.12289065,1.9258928,-0.22797446,-0.110672966,0.25505862,1.5060079,0.73161244,11.325886,3
-0.55860305,-0.4870162,-1.1519623,-0.07855697,-0.2197734,0.064835325,2.0351038,0.5496609,11.634725,3
-0.37485027,-0.15055144,-0.40362263,0.14086561,-0.124234155,0.067400955,2.6982694,1.3397136,15.082227,3
1.1958358,0.09630138,1.623311,0.089797325,-0.6718133,-0.4530558,0.3807816,0.25518683,7.564757,3
-0.038355947,-0.8809198,-2.049152,-0.22956276,0.46598327,0.4763138,0.1629186,0.43235013,7.310982,3
-0.7127286,0.5305126,0.87789536,-0.12583788,0.8615793,0.74875945,2.039892,1.859233,12.221279,3
0,0,0,0.12999222,-0.019043256,-0.14127044,2.2098732,2.1489189,12.633063,3
-0.26690984,-0.2388097,0.41579628,0.051435042,0.04949577,-0.12844226,1.5347371,1.181703,10.576532,3
0,0,0,-0.17507356,-0.45300156,0.08035128,1.8890637,0.98538685,12.616304,3
0.192173,-0.050991952,0.9059439,0.030054774,0.06098003,0.22720316,1.4461554,0.5664196,8.65886,3
-0.19175541,0.2943912,-1.718823,0.12962571,0.115469165,-0.04059992,0.3951462,0.45389703,7.9406304,3
-0.34008086,0.5231395,2.1442776,-0.022968287,-0.13009846,-0.062102363,1.0319765,1.8161392,8.311716,3
0.33654165,-0.12309122,-1.375145,0.17348579,0.2904208,0.031604283,0.5411862,1.569547,6.3150373,3
-0.124242306,0.32900816,0.5682745,-0.100792445,0.09250064,0.21388632,2.6647518,1.7227694,13.662527,3
-0.44145954,-0.5558275,0.38717937,0.07061618,0.41088337,0.005214933,0.9122715,0.45389703,7.220007,3
0.33006394,0.33634597,-0.029661179,-0.06071973,-0.22319424,0.008880114,3.177089,0.76034164,13.032879,3
-0.41357937,-0.42264667,-0.13303375,-0.11472017,-0.16125257,-0.3435888,3.20103,1.4666008,12.721645,3
-0.05970198,0.33937392,1.3032179,0.12156231,0.23189998,-0.09973163,0.780596,1.5408179,7.1146665,3
0.20458305,-0.71938854,-1.6529379,0.00928537,0.05328313,-0.118790604,1.3216623,1.9071151,8.050759,3
-0.80070925,0.95764166,1.098731,-0.2703685,0.100808404,-0.2140855,0.3233232,-0.40079626,6.4108014,3
-0.46789026,-0.29624328,-1.1337719,0.044104658,-0.0991887,-0.19075048,1.3168743,0.7124597,7.346894,3
-0.6461735,0.043710113,2.4223318,-0.035307758,-0.20938869,-0.06918838,1.0080354,0.058870718,8.754623,3
0.72421885,0.114399344,-1.3233023,-0.2474,-0.012568088,0.24968302,0.19164777,0.307857,7.040449,3
-1.4719543,0.5484915,-0.42227745,0.3343876,0.13929288,-0.18378662,0.7159554,1.0619981,5.7500296,3
0.41612875,1.1155279,0.22408962,0.12877052,-0.20633438,-0.044753812,1.8124526,1.6820697,9.202321,3
-1.267574,0.08662808,1.3179598,-0.25424168,-0.00597075,0.4763138,0.44063407,0.6406367,6.5712056,3
1.0308006,-0.13685474,-0.3638544,0.2136807,0.001481798,-0.14175913,0.7159554,0.9518695,7.866413,3
-1.1623801,-0.4905681,-0.8381119,0.14245388,0.07124254,-0.15739726,1.9441279,1.3708369,9.2071085,3
0.41660643,0.013588116,2.0975552,0.013561423,-0.1660173,0.11003932,2.4492831,1.8688095,10.291635,3
0.5548136,-0.47882032,-1.725976,-0.08869733,-0.02160889,0.07326526,0.900301,1.2798612,9.413001,3
-1.58789,0.62902653,0.24616432,0.35845566,-0.038468745,-0.24633914,1.5898014,1.7251636,10.751302,3
0.5308197,-0.8299184,0.9353523,-0.35784432,-0.10334259,0.01767656,1.3240565,1.1864913,10.349093,3
1.5410783,-0.5372411,-1.5181255,0.09566166,0.0669665,0.16391757,0.79496074,0.7364007,8.608583,3
-1.274822,0.3483799,0.5067005,-0.09810463,0.21125276,-0.2390088,1.9752513,1.6772815,10.325152,3
0.44837928,0.4562782,0.0897665,0.15564856,6.27E-04,0.181877,1.3072977,1.0021456,8.493667,3
-0.5046605,0.5057646,0.42977428,-0.16884279,-0.048609108,-0.0537946,1.9752513,0.52572,10.413734,3
0.7192689,-0.20383936,-0.975852,0.19315565,0.15810753,0.031115597,1.968069,0.8752583,9.319631,3
-0.18998042,0.019600838,0.9940729,0.10360288,0.009911747,0.17882267,0.7973547,1.1242447,9.398637,3
0.09604329,-0.1496552,-0.2866974,-0.046547655,-0.09002572,0.73409873,1.2378688,1.3636545,11.311522,3
-0.8643158,0.18206096,0.42168713,0.3391523,0.076373816,-0.15483162,0.45739275,1.2463437,6.999749,3
-0.19509298,-0.58276486,0.60060215,0.08161176,-0.049830835,-0.16252853,1.2043514,1.5480001,10.729755,3
1.0649838,-0.72687566,-0.3923998,-0.387288,-0.16039734,-0.16362809,1.2618098,1.6748874,9.975614,3
-1.6535101,-0.34478664,-0.67710686,0.33316585,0.21613967,0.008391427,1.0678879,1.0667863,10.416129,3
0.20305824,-0.017306566,1.3363934,-0.38288978,-0.28085986,-0.081039175,1.8459699,1.3445017,10.045043,3
-0.53234076,-0.3491996,-1.8934398,-0.040072486,0.09372237,-0.06259105,1.2689922,0.94708145,8.936576,3
-2.4370198,-0.4160931,0.33864975,0.1016481,0.123043865,-0.024106596,0.79017246,1.4019601,9.175984,3
1.0602283,0.63044965,2.1776934,0.3021339,0.10410708,-0.007491054,1.091829,1.9262677,9.463277,3
-2.3960261,-0.1785258,-1.6882253,-0.16468892,-0.25666964,0.042722017,0.22037697,0.8824407,5.41725,3
0.11560559,0.4517045,0.43252087,-0.22797446,-0.008658555,0.5306808,1.120558,1.0069339,8.290169,3
-0.015919805,-0.48691243,0.9554329,0.25839597,0.06940997,-0.46307397,1.1061935,0.6358485,7.428293,3
0.28730074,-0.8187676,0.5030279,-0.41086736,-0.10199868,0.17760095,1.2546276,0.85610557,9.056281,3
0.23695612,-1.1079897,-1.5441227,0.27159065,0.14479066,-0.12844227,1.4509437,1.981332,12.238038,3
-0.064496726,0.5472386,0.25317764,0.013072735,-0.31885567,-0.20516688,1.0750701,0.9686283,11.079294,3
1.1239085,-0.29697442,0.41601753,-0.1727523,0.19500375,0.34583312,-0.4284238,1.2894375,8.340445,3
0.80364233,0.04905176,0.07823372,0.1558929,0.1053288,-0.2909323,-0.9838548,1.7467104,9.582982,3
0.44007862,0.15494657,-0.49309826,0.06902795,-0.10810733,-0.32624024,0.8380544,2.0076668,6.2312436,3
0.25096726,-0.04001665,-0.24995899,-0.15625897,0.0371563,0.15133378,0.25868255,1.6940402,8.587037,3
0.37319428,-0.9272866,0.79198456,-0.20048559,-0.16540645,0.028672135,0.924242,1.3947779,10.701026,3
0.35609114,0.14610642,-0.5354996,0.06438536,-0.01427851,0.13056436,1.410244,1.4785713,11.471926,3
-0.3982587,-0.12558138,0.18871403,0.08148959,0.010889122,0.15133378,1.4317908,2.539157,11.040988,3
0.34299898,-0.5406885,0.8896904,0.430049,0.16323878,-0.1594742,1.4461554,2.3093233,11.239698,3
0,0,0,-0.2884501,0.011622161,0.18566439,0.7877784,1.2247968,9.611711,3
0.42612708,0.022466928,-0.6099348,0.16334544,0.044853203,0.05652757,0.97691214,0.9494755,10.923677,3
-0.51532656,-0.5076467,0.063651085,-0.12522705,-0.034437038,-0.11646932,1.3647561,1.78741,9.089798,3
0.41861272,-0.36143827,0.91543865,0.11643104,0.17679997,-0.14261435,1.0032473,1.6150349,9.748175,3
-0.55340743,-0.32100403,0.8781147,0.13084744,0.076984674,0.34253442,0.98888266,2.1417365,11.598813,3
0,0,0,0.07122706,-0.086604886,-0.4845764,1.2378688,2.4098756,10.950013,3
0.42411304,-0.4395982,0.65401745,-0.014049663,0.10361839,0.11895794,-1.3357873,0.5209317,5.7117243,3
0.042949677,-0.33507743,-0.5194826,0.10958936,0.07014299,0.047608927,-0.5074291,1.3947779,5.9391637,3
1.1962465,-0.6182589,-0.13477898,0.026633924,-0.2035244,-0.3156112,1.7430238,0.85849965,11.804706,3
-1.3877318,-0.23197423,-1.0650988,0.22663102,0.13269553,0.07363176,1.9776455,0.9925693,10.401764,3
0,0,0,-0.31838247,-0.6690033,-0.2900771,3.1220248,1.6700991,12.793468,3
0.26039016,0.28023142,-0.11900902,0.3974288,0.44924557,0.3912815,2.0494685,0.7052773,9.420184,3
-0.8497454,-0.63838106,-1.3178921,-0.024312189,-0.13193104,-0.16765979,2.135656,1.9597851,10.803973,3
0.63680947,-0.49821502,0.13401985,-0.3199707,0.04546407,0.37784243,2.1691735,1.9717556,7.107484,3
-0.2768133,-0.6355236,0.08382225,-0.46767783,-0.04396653,-0.11891278,1.7597824,2.3643878,7.7323437,3
0.31068087,-0.12773496,-1.3719034,0.15076163,0.012477371,0.21877323,2.157203,1.6222173,10.231783,3
0.008731782,-0.73158664,0.5627165,0.2186898,0.21858312,-0.3206203,2.5833526,1.5527884,12.012992,3
0.75116426,-0.24667254,0.124334335,-0.32656807,-0.25850222,0.38834926,2.4444947,1.6150349,10.473587,3
0.07220346,-0.50769585,-0.7620535,0.34477228,0.20526628,-0.05587156,1.5275549,1.9909085,3.1141276,3
-0.5331294,0.38041005,-0.37581062,-0.04838026,-0.092224844,-0.29117662,1.7142946,2.8025079,5.9774694,3
0.30490977,-0.8466547,0.4618101,-0.043371174,-0.06815677,-0.06894406,-0.34702444,1.3564723,13.061607,3
0.83860826,0.2485292,-0.77813244,0.38777715,0.12731992,0.048097655,0.1413717,1.2080382,10.880584,3
-0.76397115,-0.6318579,0.30354118,0.085032575,0.032147218,-0.3169551,0.47893962,0.5424787,8.225528,3
0.9774956,-0.7069263,1.1193285,-0.21587937,0.14576806,0.09501203,0.20601237,0.118723184,8.12737,3
-1.2387097,-0.6658212,-1.1495562,-0.23225054,-0.13596275,0.03123776,1.7669647,0.7986473,9.472854,3
0,0,0,0.054000665,0.10593966,0.22561492,1.7334473,0.96144605,8.311716,3
-0.21643871,-0.4204737,1.0282812,-0.20867117,-0.19509445,-0.04059992,0.97451806,1.5791234,9.128103,3
0.163903,0.3252935,-1.5459528,0.0795348,0.15822968,-0.059781075,1.118164,2.2638357,11.000289,3
0,0,0,0.031765193,0.06818825,-0.070776634,0.780596,1.6317936,7.6988263,3
-0.46787652,-0.103976935,-0.016418457,-0.24678913,-0.4146393,-0.07004361,0.27544123,1.2966198,7.0572076,3
0.56462497,0.15354079,-0.8800726,0.2245541,0.09152326,0.026350843,0.9218478,1.0667863,9.073039,3
-0.6547524,-0.15002817,-1.0804777,0.36041042,-0.0350479,-0.5774279,0.5340039,0.71964204,6.5472646,3
0.2558139,-0.42970246,0.56281567,-0.29321486,-0.1199581,0.31211337,0.89311874,0.6262721,8.192011,3
-0.012953699,0.047946066,-0.97235394,0.4190534,0.15529753,-0.078840055,1.0583115,1.6006703,7.8544426,3
0.30255133,-0.22313637,0.89319134,0.12461663,-0.048486926,-0.11903496,1.3671502,1.1960677,11.349827,3
-0.34817582,-0.29927224,0.038331985,-0.33340973,-0.3683357,0.7874884,1.9106106,0.77470624,8.165676,3
-0.58452207,-0.24735904,0.1650114,0.028344357,-0.00535988,0.07974043,1.4485496,-0.5300776,11.194211,3
-0.31704026,-0.3601908,0.37339592,-0.37788066,0.085658975,0.4978162,1.3408151,-0.38164347,10.250936,3
0.86481434,-0.49607196,0.52956676,0.003543238,0.22224832,0.1418043,0.40232846,-1.075932,7.8448663,3
-0.13106024,-0.40186483,-2.2542577,0.1282818,0.115957856,0.15353288,0.36881107,-0.39840215,9.606923,3
-0.88532466,0.57509696,-0.22904396,0.36053258,0.35663852,-0.081039175,2.7389688,2.057943,11.270822,3
0.20035493,-0.37823486,0.5174608,0.16151285,-0.383363,-0.24230744,1.3647561,0.9782046,8.096247,3
0.15802169,0.13957423,0.2949543,-0.33438715,0.21882746,0.25224864,2.2290258,2.90306,12.202126,3
-0.8717035,0.0765686,-1.0125904,-0.12815917,0.10129711,-0.033269558,1.8387877,2.203983,11.471926,3
0.27043176,0.17238104,1.0382404,-0.027610838,0.2119858,-0.43790635,0.06476054,0.7914649,7.1122723,3
-0.3058272,-0.7426046,-0.0620203,-0.13646695,-0.07304369,-0.06454583,0.1294012,0.71724784,7.6078506,3
0.68217087,0.03950225,-0.26666737,-0.23738182,-0.23101333,-0.07725181,2.7533336,1.1026977,10.205448,3
0.25603116,-0.03040468,-0.23930645,0.33377668,0.10422926,-0.114514545,2.2362082,0.41319737,8.328474,3
-0.5395521,0.6077074,-0.7713194,0.08405521,-0.11360511,-0.19380482,2.420554,0.64542496,15.929738,3
-0.51086915,-0.39877027,0.666482,-0.09932638,-0.079641014,0.038690314,2.0015864,0.2288517,10.887766,3
0.6011861,-0.18462816,0.15423203,0.13671176,0.1677592,-0.08299393,-0.80190325,-0.53247166,4.043038,3
-0.08022618,-0.32047343,-0.5506716,0.08906433,0.10312967,0.039423354,-0.35181263,0.793859,8.247075,3
-0.15228271,0.23481753,-0.43650532,-0.16591063,0.025061172,-0.14835645,0.36881107,1.7778337,5.833823,3
-0.16700906,-0.098655835,1.0136213,-0.019913955,-0.08892617,0.021097409,0.11024842,1.0643923,6.389254,3
0.11427939,-0.20212993,0.11523247,0.03420867,-0.13987227,-0.187574,2.9688025,2.4936693,14.117405,3
0.32231385,0.19564599,-0.027998924,-0.018203523,-0.13742884,-0.13797177,2.1069267,1.6078527,9.238232,3
0.6586037,0.0990658,-1.2879353,-0.22492018,-0.22759247,0.16599452,0.6034328,0.5400846,9.774509,3
-0.19019625,0.1939213,0.1021328,0.09004169,0.02029644,-0.001260247,2.8658562,2.2351065,13.499728,3
0.3333326,-0.7554416,0.3624239,0.1648115,-0.03932396,0.23001313,1.1325285,1.0907273,10.274877,3
-0.45996964,-0.10103965,1.2908659,0.4627913,0.32548442,-0.1418813,2.087774,1.7586809,11.866952,3
0.76115036,0.036832973,-0.5577564,0.06915011,-0.45532286,0.07546437,1.4174263,1.3828074,9.475247,3
-0.8489921,0.019028664,-0.6730881,-0.5072619,0.1468676,0.71919364,0.11982481,0.9758105,6.784281,3
-0.4580505,0.19063494,0.29491997,-0.0549776,0.011133472,-0.15910767,1.4653082,1.1266388,12.115939,3
1.1747187,0.25663528,-0.15779877,0.03139868,-0.024663208,0.23563313,0.99127674,0.9494755,10.425705,3
0.1311903,0.06160006,0.35230732,0.03970644,0.05682615,-0.17340192,4.4579315,2.6780148,17.562513,3
-0.27347493,-0.20110601,-0.64715195,0.29003882,0.10667271,0.06715663,3.416499,1.1960677,12.240432,3
0.28830302,-0.08198294,0.35909748,-0.24459,-0.011346367,0.024884755,0.5292157,1.1864913,7.380411,3
-0.5792233,-0.21464086,-0.33363342,-0.008674055,-0.096134394,0.22378233,1.2187161,2.2949588,8.493667,3
-0.38232327,-0.038468074,1.4338026,0.09028604,0.2502259,-0.18183184,2.8060036,2.1848304,8.242287,3
0.50149643,-0.1680367,-1.9200277,0.035919055,-0.06913416,-0.071631856,1.1397109,1.6964343,4.8953366,3
-0.4708954,0.24393886,0.62273884,-0.10653455,-0.02429668,0.01865395,2.3176076,0.36531535,12.546876,3
-0.028537333,0.37828094,0.57753086,0.008063626,0.004169598,0.10771802,0.42626947,-0.24517983,5.2424808,3
-0.13976753,0.060525715,-0.79082775,-0.08698693,0.04118801,-0.20822121,5.4610586,3.2023222,18.438753,3
-0.32559764,0.17948335,0.41002083,-0.013683138,-0.11555989,0.21535239,4.728465,2.9174244,15.314455,3
0.10752988,-0.25617176,0.48624134,0.24410176,0.09005718,-0.3856163,-0.6486809,-0.008164048,4.572133,3
0.6889274,-0.067163825,-1.0641813,0.10238114,-0.08367274,0.17075926,1.0271883,1.1864913,9.355543,3
-0.7012811,0.11623967,0.23972416,-0.037629023,-0.24347495,0.060070574,2.4397066,1.9382383,10.9883175,3
0.34123433,-0.071882665,0.18463421,0.47623038,0.18351948,-0.060636275,2.6982694,2.0483665,11.230122,3
-0.5022658,-0.5596704,-0.29027557,-0.25302,-0.032115754,-0.03901168,1.7909057,1.8472625,10.298818,3
-0.6466022,-0.46548846,0.11462307,-0.22149932,0.08712503,-0.043654256,1.9537045,1.49533,12.578,3
0.6385963,0.47081432,-0.3091812,-0.12644875,-0.061315086,0.14608034,1.1133758,0.20491076,7.6150327,3
-0.4075418,-0.69764185,0.5645437,0.029810429,0.08834677,-0.20748815,1.4365791,0.34855667,7.7179794,3
0.25283396,0.29324678,-0.20772171,-0.02895476,-0.19240665,0.23795438,2.3583074,1.8328979,10.859036,3
-0.42271137,0.10373145,-0.034791946,0.30738735,0.27954742,-0.045242496,1.2713863,1.6605228,8.256651,3
-0.16392326,0.17395033,1.3140631,-0.24691133,-0.114582494,0.030993422,1.3168743,1.0284808,9.920549,3
0.2911675,0.022155687,-1.1329203,-0.03042084,0.023472935,-0.13210747,1.3527856,0.91835225,9.192744,3
-0.16295958,0.38561282,0.001515389,0.032253888,-0.03333749,-0.044753805,1.3910912,0.19294026,9.729022,3
0.24151719,-0.4558654,0.64548016,-0.23005144,-0.14048314,0.25017166,0.972124,0.4491088,6.8680744,3
0.38111514,-0.24272856,-0.49546814,0.026145201,-0.18251069,0.39873397,3.05499,-0.50374246,9.130498,3
-0.48265594,0.089407325,-0.43600082,0.5736022,0.21516228,-0.5424864,2.8826149,0.089994,7.5575743,3
0.70598096,0.108736396,0.16185284,-0.09456163,-0.026740149,-0.13357353,3.2584884,1.3588665,6.1546326,3
-0.57771266,0.67682767,-0.29355145,-0.22540887,-0.07756409,-0.024839621,3.4380457,1.7491044,6.7986455,3
-0.10718,-0.3352904,0.5061369,0.11239933,-0.0738989,0.20899941,4.079664,0.6813364,8.115399,3
0.5800712,-0.21652664,0.73830795,0.059620634,-0.02759535,-0.0876365,4.4220204,1.5480001,9.460883,3
-0.20986879,-0.31231827,-1.3260746,-0.2665812,-0.031871412,0.38993752,4.2664037,1.8305038,12.767134,3
0.19732064,-0.17683494,-0.016939163,0.15418248,0.028604206,-0.16191766,3.371011,1.5623648,10.662721,3
-0.5487753,-0.07233994,0.4732685,0.2575408,0.020418618,0.12396699,6.1792884,2.543945,9.949279,3
-0.021702409,-0.3926101,-0.42652798,-0.1805714,0.008201304,-0.09069084,6.5695267,2.563098,17.964722,3
-0.667665,0.37462074,1.3820324,0.12730445,0.055482242,-0.19001743,2.5809584,0.8058295,7.5863037,3
0.02134478,0.3019817,-0.98323727,-0.34000707,1.57E-05,0.044310287,2.420554,0.3126452,9.310055,3
-0.009066343,0.21851353,1.2712097,0.1468521,-0.11262772,0.2681311,4.817046,1.9693614,8.790536,3
0.2625023,-0.5457311,-1.1527519,0.2249206,0.13403943,-0.18708529,4.125152,0.8752583,8.254257,3
0.2631501,0.44916037,0.40283012,0.060353663,-0.058749452,0.029649513,3.3614347,0.13308778,6.97102,3
0.25703996,-0.44045803,-0.47429276,-0.18496963,-0.04408871,0.01022402,2.6144757,0.4658675,4.6391683,3
-0.46749756,0.103143334,-0.13702583,0.035919096,-0.023685817,0.18358742,2.6551757,-0.3433379,6.597541,3
0.7963558,-0.10353673,1.4448395,0.07049402,-0.009025072,0.016699186,3.059778,0.058870718,6.13548,3
-0.33224374,-0.06383604,-1.5006218,0.105191134,0.26720795,0.031726465,7.5247717,2.1752539,12.415201,3
-0.011165202,-0.08161813,1.4169102,-0.07990087,0.033491116,-0.14737907,3.5769036,0.80104136,7.679673,3
0.33175004,-0.24235849,-1.284833,-0.011850565,0.046074927,0.028305618,5.018151,0.17378747,9.254991,3
-0.748014,0.27272815,-0.84805393,-0.039583806,-0.18177761,-0.17169146,4.228098,0.2934924,8.405086,3
0.3692131,-0.92325974,3.0156279,0.13939956,0.009667391,0.12775439,6.8400598,2.1704657,9.477642,3
0.615422,-0.352554,-2.526585,-4.88E-04,-0.029794475,-0.29032138,5.0373034,1.6772815,8.160888,3
-0.6497944,0.31117183,-0.6391001,-0.11068846,-0.22930288,-0.044509456,5.3245955,0.8273765,9.559041,3
-0.35658395,0.31845903,1.6475239,-0.08576517,-0.032482274,0.24565127,4.9750566,0.60472524,9.463277,3
0,0,0,0.013805777,0.003314385,-0.17144717,3.1723008,1.0476335,9.8870325,3
-0.14355087,0.670335,-1.4492154,0.069394454,0.33122656,-0.16778198,1.7526001,1.155368,7.186489,3
-0.42926973,-0.19591671,1.0478516,-0.09138513,-0.118858546,0.11003932,2.276908,1.593488,11.0769,3
0.15475929,0.02400741,-0.5423355,0.06230843,0.05597094,-0.12453274,1.4509437,1.1146683,10.0570135,3
-1.2917066,0.27423537,-0.043563843,-0.14587426,-0.08672705,0.13618432,2.5091352,0.9925693,11.718518,3
0.6012267,-0.16312188,1.2047338,0.23652704,0.02518336,0.040278547,1.094223,0.3174334,8.43142,3
0.4142804,0.23894459,-0.39361763,-0.042515963,-0.023074958,-0.112926304,1.7526001,2.8049018,8.498456,3
-0.6773861,0.02780369,-0.5346832,-0.2549747,-0.13645144,0.07399832,2.8227623,3.0826175,11.064929,3
0.20312738,-0.29457998,0.15015888,0.1229062,0.16959178,-0.03730126,1.2330807,3.4848258,11.708941,3
0.7455015,-0.23167248,0.1294365,-0.093828596,-0.06363637,0.053717583,3.1675127,1.6748874,13.470999,3
-0.9718215,-0.050594896,-0.5922928,-0.094683796,-0.030771855,0.10759586,-1.6949021,1.107486,8.318898,3
0.58064985,0.52224195,0.54633427,0.29211575,0.08162725,0.03746859,1.091829,0.8632879,20.758635,3
0.26231182,0.49026814,-0.45389366,-0.12547138,0.092134126,-0.022518339,0.095883824,0.892017,4.227383,3
-0.48458302,-0.77222556,1.803607,-0.110932805,-0.14329313,0.17088145,-0.5074291,1.5001181,3.662376,3
1.1306705,0.2334269,-1.2589817,0.20195207,0.08517026,-0.053061567,-0.13394967,2.4266343,14.584255,3
-0.24932826,0.2519434,-0.36661148,0.23799312,-0.29393238,-0.23766488,0.24192384,1.5719411,11.263639,3
0.26818776,-0.25565588,1.1845932,-0.050090663,0.11827913,0.13068654,0.12221891,0.2575809,7.176913,3
0.55400056,-0.038257778,-1.2691193,-0.07379223,-0.04909779,-0.18268706,-0.2728074,0.722036,6.1929383,3
-0.6611019,0.05280745,-0.4899931,0.07941264,0.033979807,0.18285438,0.021666765,0.8201941,8.8456,3
-0.30861712,-0.24776417,0.6704626,-0.002931929,-0.0427448,-0.17657843,1.4605201,1.7275575,14.560314,3
0.21986604,0.13250545,0.72839355,-0.2807532,-0.009635934,0.2144972,0.9266361,0.36052716,11.7257,3
0.04400909,-0.57511353,-0.90915394,0.22259931,0.022373375,0.19934775,0.5172452,-0.80539894,7.480963,3
-0.45400137,0.28388125,0.5537462,-0.11826316,-0.005726397,-0.013111009,1.2306865,0.7244302,10.13123,3
-0.6458825,-0.36588362,0.80686283,-0.1959652,0.057925694,0.121523574,0.00012,0.64542496,6.0923862,3
0.18627727,0.20766118,-0.47899723,0.38240156,-0.020753685,-0.13760523,-1.0437071,0.50177896,7.3133764,3
-0.70773137,-0.99984294,-1.0501451,0.032742582,0.17789954,-0.2741946,-0.11000869,1.3875955,10.255724,3
0.11123192,1.3349855,1.8144455,0.07012751,0.011499992,0.19409432,1.0224,1.978938,15.596958,3
-0.17419535,-0.23859048,-0.78794384,-0.20915985,0.08871329,-0.08885825,0.5579449,0.477838,11.481503,3
-0.24412072,0.29873908,-0.003809929,-0.21514633,-0.12533371,-0.009567995,0.26825893,-0.027316846,9.341178,3
-0.4963265,-0.4935676,0.6202135,0.003665421,0.02298424,0.22964665,-0.08127949,-0.4367077,8.828841,3
0.5965326,0.13212687,0.37728214,0.1329244,0.05438269,-0.26405424,0.30417043,0.63345444,10.021102,3
-0.554984,0.21484494,-0.54246044,0.101403765,-0.032726623,-0.07126534,-0.41884735,0.54726684,8.75223,3
0,0,0,0.052901097,0.030681137,-0.0628354,0.036031358,0.20251662,8.175252,3
0,0,0,-0.017592678,-0.029672304,0.04895284,1.0559174,0.9087758,11.318704,3
0.6901552,0.34236526,-0.31783772,0.06682884,-0.121179834,-0.002481975,1.0846466,2.682803,12.838957,3
0,0,0,0.05937626,-0.09051442,0.26910853,0.88833046,2.4697282,15.824398,3
0.42581826,0.5149883,2.1976156,-0.41941947,-0.32924035,-0.001138061,-0.11958507,1.7179811,12.599546,3
0.59764236,0.2200413,-0.06953335,0.20231862,0.24594986,0.009735325,0.16052449,0.99735737,13.312987,3
-0.46094272,0.14753056,-0.43849373,0.018692696,0.2758822,0.04614286,1.0487351,0.37010357,11.151116,3
0.12328488,-0.6959336,1.7334585,-0.058398448,-0.120446816,0.011323566,0.7829902,0.061264813,12.147061,3
0.3147002,0.22587413,-1.2703676,0.16774368,0.1658044,0.030138215,0.9817004,0.37249765,8.151311,3
-0.31285256,0.048603952,0.89318275,-0.3149616,-0.15013483,0.107840195,0.5459744,0.2719455,9.776904,3
-0.29988688,-0.10871756,-0.46380138,0.33988535,0.2719727,-0.13308483,0.30417043,0.14745238,7.457022,3
0.24479431,-0.037660837,1.1280375,-0.29333702,-0.25385967,-0.014821442,0.57709765,0.4491088,10.169536,3
-0.80697,-0.25278163,-0.07483101,0.14941773,0.015531685,-0.016531859,0.6465265,-0.08477521,10.296424,3
0.6594859,-0.038768888,-0.5569973,-0.001832375,-0.1407275,-0.31206822,0.47415143,-1.049597,11.297156,3
-0.9910255,-0.040496826,0.8570833,-0.20610556,-0.26778737,0.0952564,0.3137468,-0.44389004,8.247075,3
1.0334785,-0.10797632,0.15953827,0.5088505,0.22444744,-0.12477708,-0.81147957,-0.08956341,7.938236,3
-1.0887948,-0.21209478,-0.1568098,-0.21807846,0.20208979,-0.08555957,-0.24647227,1.8520507,8.670831,3
0,0,0,-0.24886605,-0.2346785,0.11602579,-0.5098231,1.8783858,8.505638,3
0.03483063,-0.20562083,0.11563969,-0.17446275,-0.09540135,-0.10144205,0.1317953,1.5551825,10.246148,3
-0.057434082,0.054866076,0.9218006,-0.008918408,-0.235045,0.16220716,0.3520524,0.6526072,9.288507,3
1.0862395,0.3193294,-0.8571291,0.40842438,0.12536518,-0.14835647,1.6472598,1.6198231,13.633797,3
-0.730451,-0.6165028,0.39724922,-0.39962748,0.027504632,-0.1499447,1.9034283,1.4211129,12.3481655,3
1.0920228,-0.072752774,-0.3333063,0.29798004,0.10374054,0.16489497,0.05997234,0.19533435,9.602135,3
0,0,0,-0.036040775,-0.056794688,-0.26319906,-0.8809085,0.65739536,8.8049,3
0,0,0,-0.17751706,-0.22808115,0.19323908,0.3137468,1.5671529,8.60619,3
-0.83810914,-0.08454597,0.3449297,0.15088381,0.22102661,0.17332491,1.6113484,2.1656773,10.423311,3
0.4097433,-0.7991986,1.2729301,0.012339696,0.13342859,0.005214937,0.1317953,0.7651299,8.464938,3
0.054371834,0.2743854,-1.5663261,0.022113513,-0.134741,0.13777256,0.019272655,0.9901751,8.32608,3
-0.8984678,-0.001713038,0.07072449,0.2236989,0.13184032,0.25188208,0.50766885,1.3852015,11.256456,3
0.11535549,0.1837222,-0.165308,0.25766292,-0.049708657,-0.2881223,1.1301345,1.5551825,11.546143,3
-0.94523746,0.39016438,-0.5637531,-0.31728294,0.04106584,0.6234099,1.0295823,2.3021412,10.8829775,3
0.5703856,-0.7759389,1.7562141,-0.01099533,-0.016477624,-0.14322521,0.5699154,2.419452,10.083349,3
-0.15096974,-0.21928185,-1.1548586,-0.32473546,-0.0608264,-0.08824738,0.09827793,0.96384,7.030873,3
-1.5935135,0.72525465,0.33348942,0.43713498,-0.07377674,0.23306745,-0.2680192,0.5640255,7.1745186,3
-0.2612326,-0.36179662,-0.18517876,-0.12058448,0.107405744,-0.37437642,1.4461554,1.8305038,9.123315,3
-1.2180606,0.7320701,0.63184357,-0.3556452,-0.059482493,0.089514256,2.1500206,2.5463393,10.55738,3
0.7038845,0.3897934,1.0880508,0.35869998,0.08663636,-0.081650026,1.8268173,2.2351065,11.680213,3
-0.4238751,0.3517397,-0.2995777,-0.071470946,0.15835185,-0.17156932,1.3623621,2.0459726,9.83915,3
-0.061087012,-0.15336633,-0.5079441,-0.12021796,-0.12386762,0.096111596,0.60582685,0.3389803,6.8824387,3
0.068775654,0.3248469,-0.16556263,-0.023212636,-0.1519674,0.12579963,0.3592347,0.43953243,6.336584,3
0.24848473,-0.07409674,-0.24513817,0.082833484,0.04497537,-0.1690037,1.4030617,0.33658615,8.120188,3
-0.16601902,-0.11415142,-0.13397598,0.20806077,-0.033215318,-0.011889294,1.3743324,1.2080382,7.318165,3
-0.16522825,-0.1735143,0.04805088,-0.11691929,-0.038224407,0.001549747,0.84763086,2.4529693,10.456828,3
1.109827,-0.69727415,0.18451595,0.0687836,0.02188468,0.18407613,1.2211102,2.3500233,10.229389,3
-0.7361528,0.3995667,-1.1589766,0.18179354,0.009423047,-0.09948729,1.2354748,1.4211129,10.926072,3
